
time,gFx,gFy,gFz,ax,ay,az,wx,wy,wz,
0.075424,-0.0807,0.3515,0.9500,0.0000,0.0000,0.0000,0.0000,0.0000,0.0000,
0.075719,-0.0751,0.3532,0.9601,0.0000,0.0000,0.0000,0.0000,0.0000,0.0000,
0.075997,-0.0585,0.3462,0.9635,0.0000,0.0000,0.0000,0.0000,0.0000,0.0000,
0.115010,-0.0783,0.3503,0.9493,0.0000,0.0000,0.0000,0.0000,0.0000,0.0000,
0.128243,-0.0934,0.3745,0.9075,0.0000,0.0000,0.0000,0.0000,0.0000,0.0000,
0.137748,-0.0934,0.3745,0.9075,0.0000,0.0000,0.0000,0.1194,-0.1304,0.0257,
0.195403,-0.0773,0.3775,0.8706,0.0000,0.0000,0.0000,0.1194,-0.1304,0.0257,
0.196473,-0.0912,0.3664,0.8899,0.0000,0.0000,0.0000,0.1194,-0.1304,0.0257,
0.197644,-0.0902,0.3603,0.9134,0.0000,0.0000,0.0000,0.1194,-0.1304,0.0257,
0.198248,-0.0863,0.3569,0.9065,0.0000,0.0000,0.0000,0.1194,-0.1304,0.0257,
0.216552,-0.1024,0.3601,0.8899,0.0000,0.0000,0.0000,0.1194,-0.1304,0.0257,
0.217830,-0.1024,0.3601,0.8899,0.0000,0.0000,0.0000,-0.0072,-0.0509,0.0565,
0.219055,-0.1024,0.3601,0.8899,0.0000,0.0000,0.0000,-0.0072,-0.0509,0.0565,
0.243642,-0.1061,0.3701,0.8393,0.0000,0.0000,0.0000,-0.0072,-0.0509,0.0565,
0.261158,-0.0953,0.3747,0.7995,0.0000,0.0000,0.0000,-0.0072,-0.0509,0.0565,
0.276610,-0.0953,0.3747,0.7995,0.0000,0.0000,0.0000,0.0356,0.0011,0.1939,
0.285629,-0.0953,0.3747,0.7995,-0.0684,-0.0508,-0.0099,0.0356,0.0011,0.1939,
0.286728,-0.0956,0.3758,0.7882,-0.0684,-0.0508,-0.0099,0.0356,0.0011,0.1939,
0.315538,-0.1044,0.3703,0.8046,-0.0684,-0.0508,-0.0099,0.0356,0.0011,0.1939,
0.328022,-0.0951,0.3567,0.8491,-0.0684,-0.0508,-0.0099,0.0356,0.0011,0.1939,
0.335760,-0.0951,0.3567,0.8491,-0.0684,-0.0508,-0.0099,-0.2867,-0.0224,0.2822,
0.355696,-0.0951,0.3567,0.8491,-0.1156,0.1137,-0.6588,-0.2867,-0.0224,0.2822,
0.356896,-0.0844,0.3596,0.8664,-0.1156,0.1137,-0.6588,-0.2867,-0.0224,0.2822,
0.357512,-0.1036,0.3574,0.8703,-0.1156,0.1137,-0.6588,-0.2867,-0.0224,0.2822,
0.394428,-0.1218,0.3745,0.9175,-0.1156,0.1137,-0.6588,-0.2867,-0.0224,0.2822,
0.396155,-0.1218,0.3745,0.9175,-0.1156,0.1137,-0.6588,-0.5086,-0.1712,0.2100,
0.416062,-0.1054,0.3831,0.8936,-0.1156,0.1137,-0.6588,-0.5086,-0.1712,0.2100,
0.426459,-0.0822,0.3210,0.8990,-0.1156,0.1137,-0.6588,-0.5086,-0.1712,0.2100,
0.428730,-0.0822,0.3210,0.8990,-0.1701,0.1817,-0.2250,-0.5086,-0.1712,0.2100,
0.461315,-0.1022,0.3454,0.9405,-0.1701,0.1817,-0.2250,-0.5086,-0.1712,0.2100,
0.462747,-0.0452,0.2914,0.9226,-0.1701,0.1817,-0.2250,-0.5086,-0.1712,0.2100,
0.476808,-0.0452,0.2914,0.9226,-0.1701,0.1817,-0.2250,-0.4261,-0.0996,0.4266,
0.497083,-0.0452,0.2914,0.9226,-0.2580,0.2963,0.1599,-0.4261,-0.0996,0.4266,
0.498501,-0.0128,0.2354,0.8762,-0.2580,0.2963,0.1599,-0.4261,-0.0996,0.4266,
0.499237,-0.0137,0.2635,0.8366,-0.2580,0.2963,0.1599,-0.4261,-0.0996,0.4266,
0.528101,-0.0335,0.2709,0.8297,-0.2580,0.2963,0.1599,-0.4261,-0.0996,0.4266,
0.536704,-0.0335,0.2709,0.8297,-0.2580,0.2963,0.1599,-0.5675,-0.2389,0.4036,
0.567098,-0.0335,0.2709,0.8297,0.1014,-0.2170,-0.1100,-0.5675,-0.2389,0.4036,
0.569402,-0.0577,0.2420,0.8869,0.1014,-0.2170,-0.1100,-0.5675,-0.2389,0.4036,
0.570647,-0.0308,0.2279,1.0109,0.1014,-0.2170,-0.1100,-0.5675,-0.2389,0.4036,
0.572179,-0.0308,0.2279,1.0109,0.1153,0.0690,-0.1680,-0.5675,-0.2389,0.4036,
0.594680,0.0100,0.2019,1.0708,0.1153,0.0690,-0.1680,-0.5675,-0.2389,0.4036,
0.597324,0.0100,0.2019,1.0708,0.1153,0.0690,-0.1680,-0.4225,0.4897,0.5285,
0.615189,0.0293,0.1780,0.9881,0.1153,0.0690,-0.1680,-0.4225,0.4897,0.5285,
0.637592,0.0293,0.1780,0.9881,0.1605,-0.1191,0.2037,-0.4225,0.4897,0.5285,
0.639697,-0.0013,0.1961,0.8437,0.1605,-0.1191,0.2037,-0.4225,0.4897,0.5285,
0.640485,-0.0132,0.2164,0.6736,0.1605,-0.1191,0.2037,-0.4225,0.4897,0.5285,
0.661105,0.0151,0.2347,0.5856,0.1605,-0.1191,0.2037,-0.4225,0.4897,0.5285,
0.676668,0.0151,0.2347,0.5856,0.1605,-0.1191,0.2037,-0.0951,-0.3209,0.2648,
0.707094,0.0400,0.2428,0.6198,0.1605,-0.1191,0.2037,-0.0951,-0.3209,0.2648,
0.709192,0.0293,0.2340,0.6880,0.1605,-0.1191,0.2037,-0.0951,-0.3209,0.2648,
0.710161,0.0293,0.2340,0.6880,0.3467,-0.4565,-0.3971,-0.0951,-0.3209,0.2648,
0.728043,-0.0154,0.2142,0.7831,0.3467,-0.4565,-0.3971,-0.0951,-0.3209,0.2648,
0.737585,-0.0154,0.2142,0.7831,0.3467,-0.4565,-0.3971,-0.3893,0.3477,0.3863,
0.744324,-0.0465,0.1785,0.9527,0.3467,-0.4565,-0.3971,-0.3893,0.3477,0.3863,
0.777673,-0.0289,0.1506,1.0598,0.3467,-0.4565,-0.3971,-0.3893,0.3477,0.3863,
0.779444,-0.0049,0.1140,1.0823,0.3467,-0.4565,-0.3971,-0.3893,0.3477,0.3863,
0.780775,-0.0049,0.1140,1.0823,0.5889,0.1575,-2.3194,-0.3893,0.3477,0.3863,
0.797839,-0.0049,0.1140,1.0823,0.5889,0.1575,-2.3194,-0.3952,0.1148,0.4225,
0.816007,-0.0023,0.1103,1.0087,0.5889,0.1575,-2.3194,-0.3952,0.1148,0.4225,
0.848596,-0.0023,0.1103,1.0087,0.0801,-0.3858,0.9814,-0.3952,0.1148,0.4225,
0.850505,0.0090,0.1333,0.9911,0.0801,-0.3858,0.9814,-0.3952,0.1148,0.4225,
0.851586,0.0159,0.1535,1.0387,0.0801,-0.3858,0.9814,-0.3952,0.1148,0.4225,
0.860926,0.0203,0.1489,1.0903,0.0801,-0.3858,0.9814,-0.3952,0.1148,0.4225,
0.877298,0.0203,0.1489,1.0903,0.0801,-0.3858,0.9814,-0.0963,0.1794,0.1855,
0.915384,0.0239,0.1350,1.1126,0.0801,-0.3858,0.9814,-0.0963,0.1794,0.1855,
0.917660,0.0068,0.1250,1.1106,0.0801,-0.3858,0.9814,-0.0963,0.1794,0.1855,
0.919131,-0.0477,0.1457,1.1064,0.0801,-0.3858,0.9814,-0.0963,0.1794,0.1855,
0.920323,-0.0477,0.1457,1.1064,0.4556,-0.4963,1.0779,-0.0963,0.1794,0.1855,
0.937870,-0.0477,0.1457,1.1064,0.4556,-0.4963,1.0779,0.0539,0.4734,0.0097,
0.988069,-0.0477,0.1457,1.1064,0.5313,-0.4553,1.7804,0.0539,0.4734,0.0097,
0.989717,-0.1024,0.1643,1.1209,0.5313,-0.4553,1.7804,0.0539,0.4734,0.0097,
0.990530,-0.1123,0.1503,1.1106,0.5313,-0.4553,1.7804,0.0539,0.4734,0.0097,
0.991349,-0.0944,0.1279,1.0940,0.5313,-0.4553,1.7804,0.0539,0.4734,0.0097,
0.992581,-0.0944,0.1279,1.0940,0.7221,-0.4165,1.6493,0.0539,0.4734,0.0097,
0.999832,-0.0944,0.1279,1.0940,0.7221,-0.4165,1.6493,-0.1200,0.3342,0.1668,
1.014385,-0.0513,0.0883,1.0901,0.7221,-0.4165,1.6493,-0.1200,0.3342,0.1668,
1.059360,-0.0513,0.0883,1.0901,-0.2635,-0.1752,1.4606,-0.1200,0.3342,0.1668,
1.061591,-0.0259,0.0673,1.1045,-0.2635,-0.1752,1.4606,-0.1200,0.3342,0.1668,
1.062419,-0.0052,0.0717,1.0933,-0.2635,-0.1752,1.4606,-0.1200,0.3342,0.1668,
1.063741,0.0083,0.0805,1.0583,-0.2635,-0.1752,1.4606,-0.1200,0.3342,0.1668,
1.077849,0.0083,0.0805,1.0583,-0.2635,-0.1752,1.4606,-0.2951,-0.1028,0.2053,
1.115526,0.0134,0.1007,1.0544,-0.2635,-0.1752,1.4606,-0.2951,-0.1028,0.2053,
1.117523,-0.0081,0.1042,1.0786,-0.2635,-0.1752,1.4606,-0.2951,-0.1028,0.2053,
1.128551,-0.0374,0.1105,1.0893,-0.2635,-0.1752,1.4606,-0.2951,-0.1028,0.2053,
1.130077,-0.0374,0.1105,1.0893,0.6228,-0.7606,1.1795,-0.2951,-0.1028,0.2053,
1.138504,-0.0374,0.1105,1.0893,0.6228,-0.7606,1.1795,0.0177,0.3511,0.0744,
1.195418,-0.0587,0.1240,1.0935,0.6228,-0.7606,1.1795,0.0177,0.3511,0.0744,
1.197707,-0.0673,0.1210,1.0925,0.6228,-0.7606,1.1795,0.0177,0.3511,0.0744,
1.199237,-0.0709,0.1281,1.0940,0.6228,-0.7606,1.1795,0.0177,0.3511,0.0744,
1.200389,-0.0709,0.1281,1.0940,0.6228,-0.7606,1.1795,-0.2760,-0.0891,0.1526,
1.201656,-0.0540,0.1257,1.0786,0.6228,-0.7606,1.1795,-0.2760,-0.0891,0.1526,
1.202669,-0.0540,0.1257,1.0786,0.6413,-0.3530,1.0201,-0.2760,-0.0891,0.1526,
1.242969,-0.0440,0.1108,1.0718,0.6413,-0.3530,1.0201,-0.2760,-0.0891,0.1526,
1.244252,-0.0281,0.0902,1.1033,0.6413,-0.3530,1.0201,-0.2760,-0.0891,0.1526,
1.262362,-0.0391,0.0817,1.1378,0.6413,-0.3530,1.0201,-0.2760,-0.0891,0.1526,
1.268764,-0.0391,0.0817,1.1378,0.0530,0.0151,1.0331,-0.2760,-0.0891,0.1526,
1.278748,-0.0391,0.0817,1.1378,0.0530,0.0151,1.0331,-0.4743,-0.2256,0.2591,
1.314669,-0.0428,0.0829,1.1314,0.0530,0.0151,1.0331,-0.4743,-0.2256,0.2591,
1.317113,-0.0308,0.0751,1.1180,0.0530,0.0151,1.0331,-0.4743,-0.2256,0.2591,
1.327748,-0.0313,0.0621,1.0945,0.0530,0.0151,1.0331,-0.4743,-0.2256,0.2591,
1.340425,-0.0313,0.0621,1.0945,0.0530,0.0151,1.0331,-0.3109,-0.2620,0.0905,
1.341798,-0.0313,0.0621,1.0945,0.1289,-0.0146,1.1144,-0.3109,-0.2620,0.0905,
1.342970,-0.0428,0.0609,1.0564,0.1289,-0.0146,1.1144,-0.3109,-0.2620,0.0905,
1.394171,-0.0617,0.0736,1.0060,0.1289,-0.0146,1.1144,-0.3109,-0.2620,0.0905,
1.395009,-0.0663,0.0773,0.9942,0.1289,-0.0146,1.1144,-0.3109,-0.2620,0.0905,
1.401284,-0.0663,0.0773,0.9942,0.1289,-0.0146,1.1144,-0.0613,-0.0814,-0.0867,
1.413721,-0.0700,0.0638,1.0129,0.1289,-0.0146,1.1144,-0.0613,-0.0814,-0.0867,
1.414788,-0.0700,0.0638,1.0129,0.0128,-0.1151,0.9081,-0.0613,-0.0814,-0.0867,
1.415857,-0.0700,0.0638,1.0129,-0.0265,-0.0731,0.8535,-0.0613,-0.0814,-0.0867,
1.462088,-0.0660,0.0646,1.0380,-0.0265,-0.0731,0.8535,-0.0613,-0.0814,-0.0867,
1.463145,-0.0595,0.0731,1.0253,-0.0265,-0.0731,0.8535,-0.0613,-0.0814,-0.0867,
1.463917,-0.0563,0.0731,0.9997,-0.0265,-0.0731,0.8535,-0.0613,-0.0814,-0.0867,
1.481631,-0.0563,0.0731,0.9997,-0.0265,-0.0731,0.8535,-0.0839,-0.1238,-0.1293,
1.482644,-0.0553,0.0722,0.9864,-0.0265,-0.0731,0.8535,-0.0839,-0.1238,-0.1293,
1.483741,-0.0553,0.0722,0.9864,-0.3727,-0.0023,0.0067,-0.0839,-0.1238,-0.1293,
1.515286,-0.0513,0.0663,0.9884,-0.3727,-0.0023,0.0067,-0.0839,-0.1238,-0.1293,
1.528524,-0.0619,0.0590,0.9960,-0.3727,-0.0023,0.0067,-0.0839,-0.1238,-0.1293,
1.540364,-0.0619,0.0590,0.9960,-0.3727,-0.0023,0.0067,-0.0501,0.0766,-0.0668,
1.550183,-0.0712,0.0548,1.0285,-0.3727,-0.0023,0.0067,-0.0501,0.0766,-0.0668,
1.552015,-0.0712,0.0548,1.0285,-0.2358,0.0386,0.0014,-0.0501,0.0766,-0.0668,
1.582653,-0.0560,0.0462,1.0542,-0.2358,0.0386,0.0014,-0.0501,0.0766,-0.0668,
1.584721,-0.0328,0.0362,1.0419,-0.2358,0.0386,0.0014,-0.0501,0.0766,-0.0668,
1.596817,-0.0208,0.0379,1.0180,-0.2358,0.0386,0.0014,-0.0501,0.0766,-0.0668,
1.600658,-0.0208,0.0379,1.0180,-0.2358,0.0386,0.0014,-0.1758,-0.0856,0.0196,
1.601910,-0.0081,0.0413,0.9974,-0.2358,0.0386,0.0014,-0.1758,-0.0856,0.0196,
1.602620,-0.0057,0.0452,0.9999,-0.2358,0.0386,0.0014,-0.1758,-0.0856,0.0196,
1.604522,-0.0091,0.0408,0.9955,-0.2358,0.0386,0.0014,-0.1758,-0.0856,0.0196,
1.607167,-0.0057,0.0403,0.9955,-0.2358,0.0386,0.0014,-0.1758,-0.0856,0.0196,
1.610231,-0.0052,0.0443,0.9960,-0.2358,0.0386,0.0014,-0.1758,-0.0856,0.0196,
1.611824,-0.0047,0.0438,0.9930,-0.2358,0.0386,0.0014,-0.1758,-0.0856,0.0196,
1.614264,-0.0081,0.0423,0.9940,-0.2358,0.0386,0.0014,-0.1758,-0.0856,0.0196,
1.616839,-0.0101,0.0487,0.9911,-0.2358,0.0386,0.0014,-0.1758,-0.0856,0.0196,
1.621004,-0.0101,0.0477,0.9950,-0.2358,0.0386,0.0014,-0.1758,-0.0856,0.0196,
1.621982,-0.0091,0.0438,0.9925,-0.2358,0.0386,0.0014,-0.1758,-0.0856,0.0196,
1.624312,-0.0081,0.0438,0.9930,-0.2358,0.0386,0.0014,-0.1758,-0.0856,0.0196,
1.627189,-0.0125,0.0472,0.9994,-0.2358,0.0386,0.0014,-0.1758,-0.0856,0.0196,
1.629246,-0.0164,0.0433,0.9974,-0.2358,0.0386,0.0014,-0.1758,-0.0856,0.0196,
1.632624,-0.0145,0.0462,0.9994,-0.2358,0.0386,0.0014,-0.1758,-0.0856,0.0196,
1.634388,-0.0198,0.0502,0.9994,-0.2358,0.0386,0.0014,-0.1758,-0.0856,0.0196,
1.637046,-0.0247,0.0502,1.0038,-0.2358,0.0386,0.0014,-0.1758,-0.0856,0.0196,
1.639797,-0.0296,0.0457,1.0068,-0.2358,0.0386,0.0014,-0.1758,-0.0856,0.0196,
1.643746,-0.0335,0.0462,1.0082,-0.2358,0.0386,0.0014,-0.1758,-0.0856,0.0196,
1.644871,-0.0360,0.0462,1.0136,-0.2358,0.0386,0.0014,-0.1758,-0.0856,0.0196,
1.647559,-0.0374,0.0492,1.0165,-0.2358,0.0386,0.0014,-0.1758,-0.0856,0.0196,
1.649527,-0.0389,0.0482,1.0234,-0.2358,0.0386,0.0014,-0.1758,-0.0856,0.0196,
1.653117,-0.0443,0.0457,1.0243,-0.2358,0.0386,0.0014,-0.1758,-0.0856,0.0196,
1.657158,-0.0472,0.0507,1.0312,-0.2358,0.0386,0.0014,-0.1758,-0.0856,0.0196,
1.657932,-0.0501,0.0497,1.0375,-0.2358,0.0386,0.0014,-0.1758,-0.0856,0.0196,
1.660691,-0.0521,0.0516,1.0390,-0.2358,0.0386,0.0014,-0.1758,-0.0856,0.0196,
1.662848,-0.0585,0.0502,1.0429,-0.2358,0.0386,0.0014,-0.1758,-0.0856,0.0196,
1.663602,-0.0585,0.0502,1.0429,-0.2680,0.0035,0.0166,-0.1758,-0.0856,0.0196,
1.664316,-0.0585,0.0502,1.0429,-0.2767,0.0561,0.0122,-0.1758,-0.0856,0.0196,
1.664923,-0.0604,0.0492,1.0453,-0.2767,0.0561,0.0122,-0.1758,-0.0856,0.0196,
1.669268,-0.0614,0.0516,1.0497,-0.2767,0.0561,0.0122,-0.1758,-0.0856,0.0196,
1.670026,-0.0643,0.0565,1.0556,-0.2767,0.0561,0.0122,-0.1758,-0.0856,0.0196,
1.672590,-0.0629,0.0555,1.0561,-0.2767,0.0561,0.0122,-0.1758,-0.0856,0.0196,
1.676041,-0.0638,0.0575,1.0625,-0.2767,0.0561,0.0122,-0.1758,-0.0856,0.0196,
1.681237,-0.0678,0.0570,1.0610,-0.2767,0.0561,0.0122,-0.1758,-0.0856,0.0196,
1.682074,-0.0663,0.0507,1.0644,-0.2767,0.0561,0.0122,-0.1758,-0.0856,0.0196,
1.682764,-0.0663,0.0507,1.0644,-0.2767,0.0561,0.0122,-0.0467,0.0927,-0.0076,
1.683512,-0.0663,0.0521,1.0620,-0.2767,0.0561,0.0122,-0.0467,0.0927,-0.0076,
1.684906,-0.0668,0.0585,1.0556,-0.2767,0.0561,0.0122,-0.0467,0.0927,-0.0076,
1.688625,-0.0653,0.0580,1.0591,-0.2767,0.0561,0.0122,-0.0467,0.0927,-0.0076,
1.690477,-0.0629,0.0595,1.0497,-0.2767,0.0561,0.0122,-0.0467,0.0927,-0.0076,
1.693252,-0.0629,0.0575,1.0497,-0.2767,0.0561,0.0122,-0.0467,0.0927,-0.0076,
1.695058,-0.0595,0.0599,1.0488,-0.2767,0.0561,0.0122,-0.0467,0.0927,-0.0076,
1.697595,-0.0580,0.0629,1.0483,-0.2767,0.0561,0.0122,-0.0467,0.0927,-0.0076,
1.703056,-0.0555,0.0614,1.0473,-0.2767,0.0561,0.0122,-0.0467,0.0927,-0.0076,
1.703994,-0.0540,0.0599,1.0439,-0.2767,0.0561,0.0122,-0.0467,0.0927,-0.0076,
1.705171,-0.0545,0.0629,1.0463,-0.2767,0.0561,0.0122,-0.0467,0.0927,-0.0076,
1.707663,-0.0551,0.0643,1.0419,-0.2767,0.0561,0.0122,-0.0467,0.0927,-0.0076,
1.713742,-0.0530,0.0614,1.0405,-0.2767,0.0561,0.0122,-0.0467,0.0927,-0.0076,
1.714463,-0.0496,0.0653,1.0375,-0.2767,0.0561,0.0122,-0.0467,0.0927,-0.0076,
1.715134,-0.0521,0.0604,1.0385,-0.2767,0.0561,0.0122,-0.0467,0.0927,-0.0076,
1.718136,-0.0491,0.0624,1.0356,-0.2767,0.0561,0.0122,-0.0467,0.0927,-0.0076,
1.723589,-0.0496,0.0629,1.0346,-0.2767,0.0561,0.0122,-0.0467,0.0927,-0.0076,
1.724608,-0.0472,0.0585,1.0282,-0.2767,0.0561,0.0122,-0.0467,0.0927,-0.0076,
1.734994,-0.0472,0.0585,1.0282,0.1602,-0.0353,-0.0196,-0.0467,0.0927,-0.0076,
1.740388,-0.0389,0.0546,1.0112,0.1602,-0.0353,-0.0196,-0.0467,0.0927,-0.0076,
1.741299,-0.0389,0.0546,1.0112,0.1602,-0.0353,-0.0196,-0.0750,-0.0345,0.0077,
1.790836,-0.0355,0.0512,0.9591,0.1602,-0.0353,-0.0196,-0.0750,-0.0345,0.0077,
1.800451,-0.0355,0.0512,0.9591,0.1602,-0.0353,-0.0196,0.0628,0.0582,0.0123,
1.816063,-0.0413,0.0612,0.9747,0.1602,-0.0353,-0.0196,0.0628,0.0582,0.0123,
1.821802,-0.0413,0.0612,0.9747,-0.2210,0.1061,0.3367,0.0628,0.0582,0.0123,
1.857509,-0.0450,0.0563,0.9962,-0.2210,0.1061,0.3367,0.0628,0.0582,0.0123,
1.859943,-0.0612,0.0609,1.0102,-0.2210,0.1061,0.3367,0.0628,0.0582,0.0123,
1.881965,-0.0612,0.0609,1.0102,-0.2210,0.1061,0.3367,-0.0325,0.0503,-0.0141,
1.882991,-0.0792,0.0758,1.0229,-0.2210,0.1061,0.3367,-0.0325,0.0503,-0.0141,
1.891081,-0.0663,0.0743,1.0182,-0.2210,0.1061,0.3367,-0.0325,0.0503,-0.0141,
1.892642,-0.0663,0.0743,1.0182,0.0314,0.0368,-0.2624,-0.0325,0.0503,-0.0141,
1.893919,-0.0663,0.0743,1.0182,0.0377,0.0646,-0.2526,-0.0325,0.0503,-0.0141,
1.914007,-0.0496,0.0573,1.0107,0.0377,0.0646,-0.2526,-0.0325,0.0503,-0.0141,
1.942245,-0.0496,0.0573,1.0107,0.0377,0.0646,-0.2526,0.0178,0.0453,0.0606,
1.943194,-0.0465,0.0480,1.0094,0.0377,0.0646,-0.2526,0.0178,0.0453,0.0606,
1.960987,-0.0513,0.0538,1.0011,0.0377,0.0646,-0.2526,0.0178,0.0453,0.0606,
1.961914,-0.0513,0.0538,1.0011,-0.1692,0.1392,0.0556,0.0178,0.0453,0.0606,
1.991315,-0.0538,0.0563,0.9830,-0.1692,0.1392,0.0556,0.0178,0.0453,0.0606,
1.993031,-0.0533,0.0512,0.9791,-0.1692,0.1392,0.0556,0.0178,0.0453,0.0606,
2.001168,-0.0533,0.0512,0.9791,-0.1692,0.1392,0.0556,0.0498,0.0360,0.0617,
2.014019,-0.0499,0.0487,0.9789,-0.1692,0.1392,0.0556,0.0498,0.0360,0.0617,
2.033828,-0.0413,0.0425,0.9740,-0.1692,0.1392,0.0556,0.0498,0.0360,0.0617,
2.034967,-0.0413,0.0425,0.9740,0.0057,-0.0289,-0.0410,0.0498,0.0360,0.0617,
2.057296,-0.0306,0.0360,0.9852,0.0057,-0.0289,-0.0410,0.0498,0.0360,0.0617,
2.081389,-0.0274,0.0386,0.9977,0.0057,-0.0289,-0.0410,0.0498,0.0360,0.0617,
2.082327,-0.0274,0.0386,0.9977,0.0057,-0.0289,-0.0410,-0.0045,0.0451,0.1125,
2.101757,-0.0384,0.0469,1.0082,0.0057,-0.0289,-0.0410,-0.0045,0.0451,0.1125,
2.102442,-0.0384,0.0469,1.0082,0.0294,-0.0693,-0.2677,-0.0045,0.0451,0.1125,
2.114191,-0.0457,0.0485,1.0077,0.0294,-0.0693,-0.2677,-0.0045,0.0451,0.1125,
2.142240,-0.0416,0.0502,1.0087,0.0294,-0.0693,-0.2677,-0.0045,0.0451,0.1125,
2.143189,-0.0416,0.0502,1.0087,0.0294,-0.0693,-0.2677,-0.0553,0.0040,0.0670,
2.172037,-0.0416,0.0502,1.0087,0.1596,-0.0973,-0.0558,-0.0553,0.0040,0.0670,
2.173311,-0.0408,0.0403,1.0253,0.1596,-0.0973,-0.0558,-0.0553,0.0040,0.0670,
2.173853,-0.0560,0.0514,1.0348,0.1596,-0.0973,-0.0558,-0.0553,0.0040,0.0670,
2.202044,-0.0614,0.0619,1.0216,0.1596,-0.0973,-0.0558,-0.0553,0.0040,0.0670,
2.203842,-0.0614,0.0619,1.0216,0.1596,-0.0973,-0.0558,-0.0313,-0.0037,0.0418,
2.215386,-0.0551,0.0636,0.9940,0.1596,-0.0973,-0.0558,-0.0313,-0.0037,0.0418,
2.243041,-0.0560,0.0670,0.9701,0.1596,-0.0973,-0.0558,-0.0313,-0.0037,0.0418,
2.244004,-0.0560,0.0670,0.9701,0.0345,-0.0091,0.1417,-0.0313,-0.0037,0.0418,
2.256797,-0.0592,0.0663,0.9850,0.0345,-0.0091,0.1417,-0.0313,-0.0037,0.0418,
2.262327,-0.0592,0.0663,0.9850,0.0345,-0.0091,0.1417,0.0003,0.0242,0.0554,
2.312352,-0.0592,0.0663,0.9850,-0.0742,0.1378,-0.1151,0.0003,0.0242,0.0554,
2.313405,-0.0555,0.0541,0.9997,-0.0742,0.1378,-0.1151,0.0003,0.0242,0.0554,
2.314655,-0.0573,0.0602,0.9979,-0.0742,0.1378,-0.1151,0.0003,0.0242,0.0554,
2.315835,-0.0602,0.0617,0.9989,-0.0742,0.1378,-0.1151,0.0003,0.0242,0.0554,
2.316328,-0.0602,0.0617,0.9989,-0.0522,0.1343,-0.1023,0.0003,0.0242,0.0554,
2.343152,-0.0602,0.0617,0.9989,-0.0522,0.1343,-0.1023,-0.0530,-0.0245,0.0663,
2.343892,-0.0585,0.0560,1.0214,-0.0522,0.1343,-0.1023,-0.0530,-0.0245,0.0663,
2.383194,-0.0585,0.0560,1.0214,-0.0677,0.0897,-0.0532,-0.0530,-0.0245,0.0663,
2.384464,-0.0430,0.0403,1.0224,-0.0677,0.0897,-0.0532,-0.0530,-0.0245,0.0663,
2.385023,-0.0384,0.0298,1.0136,-0.0677,0.0897,-0.0532,-0.0530,-0.0245,0.0663,
2.404047,-0.0477,0.0357,1.0058,-0.0677,0.0897,-0.0532,-0.0530,-0.0245,0.0663,
2.405358,-0.0477,0.0357,1.0058,-0.0677,0.0897,-0.0532,0.0258,0.0193,0.0582,
2.414395,-0.0580,0.0447,1.0055,-0.0677,0.0897,-0.0532,0.0258,0.0193,0.0582,
2.453212,-0.0609,0.0425,1.0016,-0.0677,0.0897,-0.0532,0.0258,0.0193,0.0582,
2.454507,-0.0511,0.0369,0.9994,-0.0677,0.0897,-0.0532,0.0258,0.0193,0.0582,
2.455255,-0.0511,0.0369,0.9994,0.0521,-0.1053,0.1278,0.0258,0.0193,0.0582,
2.463768,-0.0511,0.0369,0.9994,0.0521,-0.1053,0.1278,0.0173,-0.0069,0.0140,
2.514330,-0.0477,0.0316,0.9960,0.0521,-0.1053,0.1278,0.0173,-0.0069,0.0140,
2.516416,-0.0482,0.0340,0.9928,0.0521,-0.1053,0.1278,0.0173,-0.0069,0.0140,
2.517128,-0.0433,0.0391,0.9891,0.0521,-0.1053,0.1278,0.0173,-0.0069,0.0140,
2.523171,-0.0433,0.0391,0.9891,-0.0450,-0.0966,-0.0179,0.0173,-0.0069,0.0140,
2.543406,-0.0433,0.0391,0.9891,-0.0450,-0.0966,-0.0179,-0.0027,-0.0208,-0.0146,
2.544237,-0.0433,0.0355,0.9918,-0.0450,-0.0966,-0.0179,-0.0027,-0.0208,-0.0146,
2.590724,-0.0401,0.0372,0.9952,-0.0450,-0.0966,-0.0179,-0.0027,-0.0208,-0.0146,
2.593396,-0.0469,0.0452,1.0019,-0.0450,-0.0966,-0.0179,-0.0027,-0.0208,-0.0146,
2.594172,-0.0521,0.0519,1.0053,-0.0450,-0.0966,-0.0179,-0.0027,-0.0208,-0.0146,
2.594784,-0.0521,0.0519,1.0053,0.0412,-0.1362,-0.1039,-0.0027,-0.0208,-0.0146,
2.603390,-0.0521,0.0519,1.0053,0.0412,-0.1362,-0.1039,-0.0154,-0.0047,-0.0368,
2.614211,-0.0499,0.0497,1.0114,0.0412,-0.1362,-0.1039,-0.0154,-0.0047,-0.0368,
2.656770,-0.0482,0.0472,1.0070,0.0412,-0.1362,-0.1039,-0.0154,-0.0047,-0.0368,
2.657456,-0.0491,0.0504,1.0050,0.0412,-0.1362,-0.1039,-0.0154,-0.0047,-0.0368,
2.664556,-0.0491,0.0504,1.0050,0.0412,-0.1362,-0.1039,0.0020,0.0029,-0.0334,
2.665469,-0.0491,0.0504,1.0050,0.0310,-0.0346,-0.0293,0.0020,0.0029,-0.0334,
2.715557,-0.0484,0.0546,1.0053,0.0310,-0.0346,-0.0293,0.0020,0.0029,-0.0334,
2.716023,-0.0496,0.0555,1.0046,0.0310,-0.0346,-0.0293,0.0020,0.0029,-0.0334,
2.716406,-0.0452,0.0582,1.0016,0.0310,-0.0346,-0.0293,0.0020,0.0029,-0.0334,
2.733674,-0.0452,0.0582,1.0016,0.0050,0.0220,0.0424,0.0020,0.0029,-0.0334,
2.734491,-0.0506,0.0573,1.0153,0.0050,0.0220,0.0424,0.0020,0.0029,-0.0334,
2.735058,-0.0506,0.0573,1.0153,0.0043,0.0283,0.0372,0.0020,0.0029,-0.0334,
2.744401,-0.0506,0.0573,1.0153,0.0043,0.0283,0.0372,-0.0164,-0.0017,-0.0189,
2.790930,-0.0599,0.0612,1.0321,0.0043,0.0283,0.0372,-0.0164,-0.0017,-0.0189,
2.791826,-0.0653,0.0756,1.0246,0.0043,0.0283,0.0372,-0.0164,-0.0017,-0.0189,
2.804215,-0.0638,0.0734,1.0129,0.0043,0.0283,0.0372,-0.0164,-0.0017,-0.0189,
2.805372,-0.0638,0.0734,1.0129,0.0101,0.0715,0.0277,-0.0164,-0.0017,-0.0189,
2.806290,-0.0638,0.0734,1.0129,0.0101,0.0715,0.0277,0.0499,0.0166,-0.0217,
2.814307,-0.0656,0.0648,1.0199,0.0101,0.0715,0.0277,0.0499,0.0166,-0.0217,
2.857269,-0.0582,0.0629,1.0050,0.0101,0.0715,0.0277,0.0499,0.0166,-0.0217,
2.859014,-0.0450,0.0553,0.9781,0.0101,0.0715,0.0277,0.0499,0.0166,-0.0217,
2.866437,-0.0450,0.0553,0.9781,0.0101,0.0715,0.0277,0.1174,0.0200,-0.0023,
2.875203,-0.0338,0.0543,0.9586,0.0101,0.0715,0.0277,0.1174,0.0200,-0.0023,
2.876239,-0.0338,0.0543,0.9586,-0.0928,0.1064,0.1703,0.1174,0.0200,-0.0023,
2.914102,-0.0357,0.0499,0.9569,-0.0928,0.1064,0.1703,0.1174,0.0200,-0.0023,
2.924074,-0.0450,0.0509,0.9759,-0.0928,0.1064,0.1703,0.1174,0.0200,-0.0023,
2.944790,-0.0462,0.0457,0.9928,-0.0928,0.1064,0.1703,0.1174,0.0200,-0.0023,
2.945496,-0.0462,0.0457,0.9928,-0.0928,0.1064,0.1703,0.0214,0.0032,-0.0328,
2.945895,-0.0462,0.0457,0.9928,0.0302,-0.0238,-0.1702,0.0214,0.0032,-0.0328,
2.990553,-0.0486,0.0430,0.9898,0.0302,-0.0238,-0.1702,0.0214,0.0032,-0.0328,
2.993203,-0.0582,0.0492,0.9989,0.0302,-0.0238,-0.1702,0.0214,0.0032,-0.0328,
3.005205,-0.0545,0.0514,1.0109,0.0302,-0.0238,-0.1702,0.0214,0.0032,-0.0328,
3.006335,-0.0545,0.0514,1.0109,0.0302,-0.0238,-0.1702,0.0196,0.0321,-0.0537,
3.014756,-0.0568,0.0519,1.0121,0.0302,-0.0238,-0.1702,0.0196,0.0321,-0.0537,
3.016203,-0.0568,0.0519,1.0121,0.1112,-0.1293,-0.2231,0.0196,0.0321,-0.0537,
3.057253,-0.0582,0.0553,1.0041,0.1112,-0.1293,-0.2231,0.0196,0.0321,-0.0537,
3.057841,-0.0704,0.0563,0.9942,0.1112,-0.1293,-0.2231,0.0196,0.0321,-0.0537,
3.069776,-0.0704,0.0563,0.9942,0.1112,-0.1293,-0.2231,0.0208,-0.0053,-0.0727,
3.085338,-0.0704,0.0563,0.9942,-0.0231,-0.0908,0.0385,0.0208,-0.0053,-0.0727,
3.086318,-0.0748,0.0636,0.9913,-0.0231,-0.0908,0.0385,0.0208,-0.0053,-0.0727,
3.115664,-0.0682,0.0585,0.9889,-0.0231,-0.0908,0.0385,0.0208,-0.0053,-0.0727,
3.124390,-0.0597,0.0575,0.9855,-0.0231,-0.0908,0.0385,0.0208,-0.0053,-0.0727,
3.146013,-0.0597,0.0604,0.9820,-0.0231,-0.0908,0.0385,0.0208,-0.0053,-0.0727,
3.147212,-0.0597,0.0604,0.9820,-0.0231,-0.0908,0.0385,0.0152,0.0417,-0.0426,
3.156587,-0.0609,0.0612,0.9779,-0.0231,-0.0908,0.0385,0.0152,0.0417,-0.0426,
3.157812,-0.0609,0.0612,0.9779,-0.1091,-0.0254,-0.0437,0.0152,0.0417,-0.0426,
3.158834,-0.0609,0.0612,0.9779,-0.0778,-0.0206,-0.0378,0.0152,0.0417,-0.0426,
3.190720,-0.0626,0.0612,0.9955,-0.0778,-0.0206,-0.0378,0.0152,0.0417,-0.0426,
3.205977,-0.0651,0.0614,1.0090,-0.0778,-0.0206,-0.0378,0.0152,0.0417,-0.0426,
3.207756,-0.0651,0.0614,1.0090,-0.0778,-0.0206,-0.0378,-0.0306,0.0585,-0.0348,
3.225756,-0.0709,0.0682,1.0136,-0.0778,-0.0206,-0.0378,-0.0306,0.0585,-0.0348,
3.226548,-0.0709,0.0682,1.0136,0.0277,0.0089,-0.1434,-0.0306,0.0585,-0.0348,
3.243906,-0.0685,0.0768,1.0190,0.0277,0.0089,-0.1434,-0.0306,0.0585,-0.0348,
3.256937,-0.0595,0.0726,1.0175,0.0277,0.0089,-0.1434,-0.0306,0.0585,-0.0348,
3.266366,-0.0595,0.0726,1.0175,0.0277,0.0089,-0.1434,-0.0190,0.0312,-0.0250,
3.296187,-0.0595,0.0726,1.0175,-0.0115,0.0690,0.0883,-0.0190,0.0312,-0.0250,
3.297871,-0.0560,0.0668,1.0168,-0.0115,0.0690,0.0883,-0.0190,0.0312,-0.0250,
3.298704,-0.0638,0.0687,1.0143,-0.0115,0.0690,0.0883,-0.0190,0.0312,-0.0250,
3.323880,-0.0675,0.0709,1.0236,-0.0115,0.0690,0.0883,-0.0190,0.0312,-0.0250,
3.346457,-0.0714,0.0675,1.0321,-0.0115,0.0690,0.0883,-0.0190,0.0312,-0.0250,
3.349442,-0.0714,0.0675,1.0321,-0.0115,0.0690,0.0883,0.0308,0.0579,-0.0216,
3.366368,-0.0670,0.0646,1.0234,-0.0115,0.0690,0.0883,0.0308,0.0579,-0.0216,
3.368010,-0.0670,0.0646,1.0234,0.0747,0.0924,0.1637,0.0308,0.0579,-0.0216,
3.390179,-0.0643,0.0592,1.0190,0.0747,0.0924,0.1637,0.0308,0.0579,-0.0216,
3.405948,-0.0643,0.0592,1.0190,0.0747,0.0924,0.1637,0.0519,0.0206,-0.0160,
3.407666,-0.0629,0.0587,1.0258,0.0747,0.0924,0.1637,0.0519,0.0206,-0.0160,
3.436358,-0.0629,0.0587,1.0258,0.0178,0.0181,0.2200,0.0519,0.0206,-0.0160,
3.437829,-0.0597,0.0560,1.0295,0.0178,0.0181,0.2200,0.0519,0.0206,-0.0160,
3.438367,-0.0599,0.0538,1.0207,0.0178,0.0181,0.2200,0.0519,0.0206,-0.0160,
3.457237,-0.0543,0.0536,1.0104,0.0178,0.0181,0.2200,0.0519,0.0206,-0.0160,
3.466074,-0.0543,0.0536,1.0104,0.0178,0.0181,0.2200,0.0746,0.0145,-0.0337,
3.508004,-0.0543,0.0536,1.0104,0.0802,-0.1036,0.1928,0.0746,0.0145,-0.0337,
3.510333,-0.0582,0.0607,1.0177,0.0802,-0.1036,0.1928,0.0746,0.0145,-0.0337,
3.511553,-0.0731,0.0722,1.0436,0.0802,-0.1036,0.1928,0.0746,0.0145,-0.0337,
3.524162,-0.0941,0.0868,1.0544,0.0802,-0.1036,0.1928,0.0746,0.0145,-0.0337,
3.546583,-0.0941,0.0868,1.0544,0.0802,-0.1036,0.1928,0.0751,0.0579,-0.0690,
3.547970,-0.1118,0.0985,1.0842,0.0802,-0.1036,0.1928,0.0751,0.0579,-0.0690,
3.577639,-0.1274,0.1140,1.2155,0.0802,-0.1036,0.1928,0.0751,0.0579,-0.0690,
3.580062,-0.1289,0.1313,1.3336,0.0802,-0.1036,0.1928,0.0751,0.0579,-0.0690,
3.580980,-0.1289,0.1313,1.3336,0.0510,-0.0560,0.2059,0.0751,0.0579,-0.0690,
3.581771,-0.1289,0.1313,1.3336,0.1443,-0.0494,0.1906,0.0751,0.0579,-0.0690,
3.606269,-0.1027,0.1267,1.3265,0.1443,-0.0494,0.1906,0.0751,0.0579,-0.0690,
3.608447,-0.1027,0.1267,1.3265,0.1443,-0.0494,0.1906,0.0248,0.1730,-0.0008,
3.622480,-0.0379,0.0927,1.1798,0.1443,-0.0494,0.1906,0.0248,0.1730,-0.0008,
3.627199,-0.0057,0.0795,1.0414,0.1443,-0.0494,0.1906,0.0248,0.1730,-0.0008,
3.629247,-0.0013,0.0800,1.0351,0.1443,-0.0494,0.1906,0.0248,0.1730,-0.0008,
3.633837,0.0017,0.0780,1.0136,0.1443,-0.0494,0.1906,0.0248,0.1730,-0.0008,
3.635481,0.0071,0.0785,0.9999,0.1443,-0.0494,0.1906,0.0248,0.1730,-0.0008,
3.636550,0.0085,0.0790,0.9901,0.1443,-0.0494,0.1906,0.0248,0.1730,-0.0008,
3.639078,0.0100,0.0785,0.9774,0.1443,-0.0494,0.1906,0.0248,0.1730,-0.0008,
3.643047,0.0110,0.0770,0.9715,0.1443,-0.0494,0.1906,0.0248,0.1730,-0.0008,
3.644183,0.0115,0.0765,0.9623,0.1443,-0.0494,0.1906,0.0248,0.1730,-0.0008,
3.647265,0.0115,0.0756,0.9540,0.1443,-0.0494,0.1906,0.0248,0.1730,-0.0008,
3.649168,0.0081,0.0765,0.9461,0.1443,-0.0494,0.1906,0.0248,0.1730,-0.0008,
3.651637,0.0115,0.0761,0.9309,0.1443,-0.0494,0.1906,0.0248,0.1730,-0.0008,
3.654525,0.0100,0.0790,0.9300,0.1443,-0.0494,0.1906,0.0248,0.1730,-0.0008,
3.656674,0.0110,0.0790,0.9187,0.1443,-0.0494,0.1906,0.0248,0.1730,-0.0008,
3.659241,0.0085,0.0775,0.9163,0.1443,-0.0494,0.1906,0.0248,0.1730,-0.0008,
3.661615,0.0085,0.0726,0.9109,0.1443,-0.0494,0.1906,0.0248,0.1730,-0.0008,
3.665256,0.0056,0.0663,0.9095,0.1443,-0.0494,0.1906,0.0248,0.1730,-0.0008,
3.666562,0.0056,0.0663,0.9095,0.1443,-0.0494,0.1906,0.5924,-0.1960,0.0418,
3.667684,0.0017,0.0634,0.9095,0.1443,-0.0494,0.1906,0.5924,-0.1960,0.0418,
3.669240,0.0037,0.0643,0.9065,0.1443,-0.0494,0.1906,0.5924,-0.1960,0.0418,
3.671926,0.0007,0.0609,0.9075,0.1443,-0.0494,0.1906,0.5924,-0.1960,0.0418,
3.674758,-0.0018,0.0599,0.9070,0.1443,-0.0494,0.1906,0.5924,-0.1960,0.0418,
3.677808,-0.0008,0.0604,0.9075,0.1443,-0.0494,0.1906,0.5924,-0.1960,0.0418,
3.679191,0.0081,0.0585,0.9002,0.1443,-0.0494,0.1906,0.5924,-0.1960,0.0418,
3.681996,0.0076,0.0614,0.9021,0.1443,-0.0494,0.1906,0.5924,-0.1960,0.0418,
3.684404,0.0110,0.0614,0.9036,0.1443,-0.0494,0.1906,0.5924,-0.1960,0.0418,
3.687963,0.0173,0.0604,0.9016,0.1443,-0.0494,0.1906,0.5924,-0.1960,0.0418,
3.689330,0.0188,0.0560,0.9012,0.1443,-0.0494,0.1906,0.5924,-0.1960,0.0418,
3.689858,0.0188,0.0560,0.9012,-0.4041,0.2182,1.7423,0.5924,-0.1960,0.0418,
3.690754,0.0188,0.0560,0.9012,-0.5001,-0.1457,1.7375,0.5924,-0.1960,0.0418,
3.691795,0.0227,0.0555,0.9026,-0.5001,-0.1457,1.7375,0.5924,-0.1960,0.0418,
3.694237,0.0232,0.0546,0.9012,-0.5001,-0.1457,1.7375,0.5924,-0.1960,0.0418,
3.697793,0.0232,0.0565,0.8958,-0.5001,-0.1457,1.7375,0.5924,-0.1960,0.0418,
3.700676,0.0256,0.0512,0.8968,-0.5001,-0.1457,1.7375,0.5924,-0.1960,0.0418,
3.701759,0.0295,0.0492,0.8968,-0.5001,-0.1457,1.7375,0.5924,-0.1960,0.0418,
3.704604,0.0242,0.0492,0.8982,-0.5001,-0.1457,1.7375,0.5924,-0.1960,0.0418,
3.707433,0.0251,0.0497,0.9002,-0.5001,-0.1457,1.7375,0.5924,-0.1960,0.0418,
3.710717,0.0198,0.0492,0.8982,-0.5001,-0.1457,1.7375,0.5924,-0.1960,0.0418,
3.711828,0.0149,0.0512,0.9007,-0.5001,-0.1457,1.7375,0.5924,-0.1960,0.0418,
3.748048,0.0149,0.0512,0.9007,-0.5001,-0.1457,1.7375,0.3788,-0.1478,-0.0977,
3.780440,-0.0086,0.0565,1.0312,-0.5001,-0.1457,1.7375,0.3788,-0.1478,-0.0977,
3.808621,-0.0455,0.0568,1.2098,-0.5001,-0.1457,1.7375,0.3788,-0.1478,-0.0977,
3.810679,-0.0455,0.0568,1.2098,-0.5001,-0.1457,1.7375,0.1045,0.1885,-0.2999,
3.813876,-0.0726,0.0626,1.2984,-0.5001,-0.1457,1.7375,0.1045,0.1885,-0.2999,
3.817383,-0.0726,0.0626,1.2984,0.6685,-0.6774,-0.5797,0.1045,0.1885,-0.2999,
3.818567,-0.0726,0.0626,1.2984,0.8259,-0.6988,-0.5510,0.1045,0.1885,-0.2999,
3.848746,-0.0653,0.0599,1.3721,0.8259,-0.6988,-0.5510,0.1045,0.1885,-0.2999,
3.851456,-0.0242,0.0457,1.3331,0.8259,-0.6988,-0.5510,0.1045,0.1885,-0.2999,
3.868384,-0.0242,0.0457,1.3331,0.8259,-0.6988,-0.5510,0.2985,-0.1431,-0.5114,
3.888251,-0.0242,0.0457,1.3331,0.2132,-0.9797,1.9492,0.2985,-0.1431,-0.5114,
3.889750,0.0225,0.0325,1.1774,0.2132,-0.9797,1.9492,0.2985,-0.1431,-0.5114,
3.890494,0.0728,0.0296,0.9571,0.2132,-0.9797,1.9492,0.2985,-0.1431,-0.5114,
3.914214,0.1085,0.0284,0.8158,0.2132,-0.9797,1.9492,0.2985,-0.1431,-0.5114,
3.949129,0.0794,0.0406,0.7540,0.2132,-0.9797,1.9492,0.2985,-0.1431,-0.5114,
3.951042,0.0794,0.0406,0.7540,0.2132,-0.9797,1.9492,0.4920,-0.6337,-0.8261,
3.959100,0.0486,0.0656,0.7359,0.2132,-0.9797,1.9492,0.4920,-0.6337,-0.8261,
3.960887,0.0486,0.0656,0.7359,0.4824,-1.4198,1.7601,0.4920,-0.6337,-0.8261,
3.980361,0.1080,0.0658,0.7161,0.4824,-1.4198,1.7601,0.4920,-0.6337,-0.8261,
4.009444,0.1080,0.0658,0.7161,0.4824,-1.4198,1.7601,-0.3003,-0.3744,-1.2017,
4.011768,0.1224,0.0482,0.7249,0.4824,-1.4198,1.7601,-0.3003,-0.3744,-1.2017,
4.013548,0.0572,0.0602,0.8879,0.4824,-1.4198,1.7601,-0.3003,-0.3744,-1.2017,
4.028641,-0.0372,0.0619,1.1375,0.4824,-1.4198,1.7601,-0.3003,-0.3744,-1.2017,
4.030726,-0.0372,0.0619,1.1375,0.9872,-1.1450,-2.4119,-0.3003,-0.3744,-1.2017,
4.064783,-0.0159,-0.0164,1.2221,0.9872,-1.1450,-2.4119,-0.3003,-0.3744,-1.2017,
4.068609,-0.0159,-0.0164,1.2221,0.9872,-1.1450,-2.4119,-0.5573,0.2438,-1.5494,
4.099279,-0.0159,-0.0164,1.2221,1.0873,-0.6216,-1.1798,-0.5573,0.2438,-1.5494,
4.101638,-0.0010,-0.0591,1.2202,1.0873,-0.6216,-1.1798,-0.5573,0.2438,-1.5494,
4.102502,-0.0220,-0.0249,1.1324,1.0873,-0.6216,-1.1798,-0.5573,0.2438,-1.5494,
4.113869,0.0444,-0.0430,0.9217,1.0873,-0.6216,-1.1798,-0.5573,0.2438,-1.5494,
4.149889,0.0444,-0.0430,0.9217,1.0873,-0.6216,-1.1798,-0.0810,-0.7539,-1.9662,
4.152813,0.1112,-0.0557,0.8584,1.0873,-0.6216,-1.1798,-0.0810,-0.7539,-1.9662,
4.169895,0.1112,-0.0557,0.8584,0.1951,-1.3868,1.4232,-0.0810,-0.7539,-1.9662,
4.172293,0.0049,-0.0608,0.9781,0.1951,-1.3868,1.4232,-0.0810,-0.7539,-1.9662,
4.172932,-0.2180,0.0342,1.1194,0.1951,-1.3868,1.4232,-0.0810,-0.7539,-1.9662,
4.209240,-0.2513,0.1101,1.0945,0.1951,-1.3868,1.4232,-0.0810,-0.7539,-1.9662,
4.210665,-0.2513,0.1101,1.0945,0.1951,-1.3868,1.4232,0.4100,0.5546,-2.4022,
4.214035,-0.1311,0.0939,0.9038,0.1951,-1.3868,1.4232,0.4100,0.5546,-2.4022,
4.239724,-0.1298,0.0607,0.9486,0.1951,-1.3868,1.4232,0.4100,0.5546,-2.4022,
4.241909,-0.1298,0.0607,0.9486,0.2388,-1.2746,-0.4237,0.4100,0.5546,-2.4022,
4.243267,-0.1298,0.0607,0.9486,0.6645,-1.7389,-0.3273,0.4100,0.5546,-2.4022,
4.269483,-0.1550,0.0631,0.9400,0.6645,-1.7389,-0.3273,0.4100,0.5546,-2.4022,
4.271221,-0.1550,0.0631,0.9400,0.6645,-1.7389,-0.3273,0.6162,-0.1726,-2.0431,
4.310067,-0.1550,0.0631,0.9400,-0.9939,-0.6555,-0.2572,0.6162,-0.1726,-2.0431,
4.312122,-0.1557,0.1508,0.9297,-0.9939,-0.6555,-0.2572,0.6162,-0.1726,-2.0431,
4.312724,-0.1457,0.1626,0.9278,-0.9939,-0.6555,-0.2572,0.6162,-0.1726,-2.0431,
4.313396,-0.0834,0.1376,0.9141,-0.9939,-0.6555,-0.2572,0.6162,-0.1726,-2.0431,
4.329739,-0.0834,0.1376,0.9141,-0.9939,-0.6555,-0.2572,0.1976,-0.6194,-1.8452,
4.380828,-0.0834,0.1376,0.9141,-0.7144,-0.1233,-0.7658,0.1976,-0.6194,-1.8452,
4.383585,-0.0123,0.0900,0.9219,-0.7144,-0.1233,-0.7658,0.1976,-0.6194,-1.8452,
4.384636,-0.0440,0.0897,1.0043,-0.7144,-0.1233,-0.7658,0.1976,-0.6194,-1.8452,
4.385419,-0.0709,0.1088,1.0434,-0.7144,-0.1233,-0.7658,0.1976,-0.6194,-1.8452,
4.410444,-0.0839,0.1142,0.9859,-0.7144,-0.1233,-0.7658,0.1976,-0.6194,-1.8452,
4.412671,-0.0839,0.1142,0.9859,-0.7144,-0.1233,-0.7658,0.3439,-0.2000,-1.9136,
4.414446,-0.1220,0.1223,0.9119,-0.7144,-0.1233,-0.7658,0.3439,-0.2000,-1.9136,
4.447029,-0.1895,0.1223,0.8440,-0.7144,-0.1233,-0.7658,0.3439,-0.2000,-1.9136,
4.450155,-0.2367,0.1254,0.8427,-0.7144,-0.1233,-0.7658,0.3439,-0.2000,-1.9136,
4.451006,-0.2367,0.1254,0.8427,0.1666,-0.7288,-0.0621,0.3439,-0.2000,-1.9136,
4.470330,-0.2367,0.1254,0.8427,0.1666,-0.7288,-0.0621,0.4286,-0.4196,-1.9110,
4.513755,-0.1990,0.1330,0.8889,0.1666,-0.7288,-0.0621,0.4286,-0.4196,-1.9110,
4.515809,-0.2244,0.1782,0.9190,0.1666,-0.7288,-0.0621,0.4286,-0.4196,-1.9110,
4.516492,-0.1521,0.1599,0.8425,0.1666,-0.7288,-0.0621,0.4286,-0.4196,-1.9110,
4.521534,-0.1521,0.1599,0.8425,-1.0629,-0.6374,-1.1192,0.4286,-0.4196,-1.9110,
4.532010,-0.1521,0.1599,0.8425,-1.0629,-0.6374,-1.1192,0.1599,-0.4996,-1.7508,
4.581256,-0.1665,0.1103,0.7486,-1.0629,-0.6374,-1.1192,0.1599,-0.4996,-1.7508,
4.583288,-0.0858,0.1420,0.8628,-1.0629,-0.6374,-1.1192,0.1599,-0.4996,-1.7508,
4.583877,-0.0585,0.1000,0.8909,-1.0629,-0.6374,-1.1192,0.1599,-0.4996,-1.7508,
4.591158,-0.3087,0.1697,0.8481,-1.0629,-0.6374,-1.1192,0.1599,-0.4996,-1.7508,
4.592969,-0.3087,0.1697,0.8481,-1.3311,-0.4081,-1.3467,0.1599,-0.4996,-1.7508,
4.611233,-0.3087,0.1697,0.8481,-1.3311,-0.4081,-1.3467,-0.3257,-0.5887,-1.5813,
4.614196,-0.1369,0.1760,0.8904,-1.3311,-0.4081,-1.3467,-0.3257,-0.5887,-1.5813,
4.647588,0.0166,0.0617,0.9613,-1.3311,-0.4081,-1.3467,-0.3257,-0.5887,-1.5813,
4.661812,0.0977,-0.0183,0.9439,-1.3311,-0.4081,-1.3467,-0.3257,-0.5887,-1.5813,
4.663632,0.0977,-0.0183,0.9439,-1.1557,-0.2923,-1.3226,-0.3257,-0.5887,-1.5813,
4.664549,0.0977,-0.0183,0.9439,-0.9065,-0.1562,-1.3106,-0.3257,-0.5887,-1.5813,
4.670761,0.0977,-0.0183,0.9439,-0.9065,-0.1562,-1.3106,-0.2085,0.1578,-1.4495,
4.713695,-0.0379,0.0548,0.9720,-0.9065,-0.1562,-1.3106,-0.2085,0.1578,-1.4495,
4.715507,-0.1279,0.1538,1.0053,-0.9065,-0.1562,-1.3106,-0.2085,0.1578,-1.4495,
4.716162,-0.1494,0.1386,1.0710,-0.9065,-0.1562,-1.3106,-0.2085,0.1578,-1.4495,
4.731068,-0.1494,0.1386,1.0710,-0.9065,-0.1562,-1.3106,-0.5072,-0.5738,-1.8855,
4.733024,-0.0983,0.1044,0.9713,-0.9065,-0.1562,-1.3106,-0.5072,-0.5738,-1.8855,
4.733611,-0.0983,0.1044,0.9713,0.4313,-0.4309,-0.6188,-0.5072,-0.5738,-1.8855,
4.781925,-0.0303,0.0524,0.9486,0.4313,-0.4309,-0.6188,-0.5072,-0.5738,-1.8855,
4.784040,0.0261,-0.0048,1.0002,0.4313,-0.4309,-0.6188,-0.5072,-0.5738,-1.8855,
4.802116,0.0039,0.0284,1.0654,0.4313,-0.4309,-0.6188,-0.5072,-0.5738,-1.8855,
4.804371,0.0039,0.0284,1.0654,-0.8929,0.3551,0.1001,-0.5072,-0.5738,-1.8855,
4.811831,0.0039,0.0284,1.0654,-0.8929,0.3551,0.1001,-0.3830,-0.4599,-1.7109,
4.814190,-0.0369,0.0570,1.1150,-0.8929,0.3551,0.1001,-0.3830,-0.4599,-1.7109,
4.847801,-0.1254,-0.0508,0.9419,-0.8929,0.3551,0.1001,-0.3830,-0.4599,-1.7109,
4.871652,-0.0936,-0.0562,1.0380,-0.8929,0.3551,0.1001,-0.3830,-0.4599,-1.7109,
4.873285,-0.0936,-0.0562,1.0380,-0.8929,0.3551,0.1001,-0.6270,-0.4138,-2.0058,
4.874105,-0.0936,-0.0562,1.0380,0.0976,-0.2003,0.2150,-0.6270,-0.4138,-2.0058,
4.874736,-0.0731,-0.1410,1.0613,0.0976,-0.2003,0.2150,-0.6270,-0.4138,-2.0058,
4.914817,-0.0739,-0.2107,0.9898,0.0976,-0.2003,0.2150,-0.6270,-0.4138,-2.0058,
4.917109,-0.0396,-0.0911,1.0160,0.0976,-0.2003,0.2150,-0.6270,-0.4138,-2.0058,
4.932628,-0.0396,-0.0911,1.0160,0.0976,-0.2003,0.2150,-0.0184,-1.1646,-3.0964,
4.944616,0.0518,-0.0848,1.0810,0.0976,-0.2003,0.2150,-0.0184,-1.1646,-3.0964,
4.946483,0.0518,-0.0848,1.0810,-1.0368,-0.8757,0.1527,-0.0184,-1.1646,-3.0964,
4.980480,0.0665,-0.1305,1.1343,-1.0368,-0.8757,0.1527,-0.0184,-1.1646,-3.0964,
4.982490,0.0408,-0.0393,0.9889,-1.0368,-0.8757,0.1527,-0.0184,-1.1646,-3.0964,
5.012802,0.1156,0.1985,0.8251,-1.0368,-0.8757,0.1527,-0.0184,-1.1646,-3.0964,
5.015085,0.1156,0.1985,0.8251,-1.0368,-0.8757,0.1527,0.5403,-2.9009,-4.2774,
5.016746,0.1156,0.1985,0.8251,-1.2686,-1.7370,0.4676,0.5403,-2.9009,-4.2774,
5.017588,0.2600,0.1340,0.8484,-1.2686,-1.7370,0.4676,0.5403,-2.9009,-4.2774,
5.047179,0.3170,0.1040,0.8808,-1.2686,-1.7370,0.4676,0.5403,-2.9009,-4.2774,
5.064941,0.3822,0.1333,0.8374,-1.2686,-1.7370,0.4676,0.5403,-2.9009,-4.2774,
5.072152,0.3822,0.1333,0.8374,-1.2686,-1.7370,0.4676,-0.5069,-3.2780,-3.1781,
5.082059,0.4350,0.0841,0.8601,-1.2686,-1.7370,0.4676,-0.5069,-3.2780,-3.1781,
5.083399,0.4350,0.0841,0.8601,-1.3871,-0.5671,-0.3956,-0.5069,-3.2780,-3.1781,
5.084031,0.4350,0.0841,0.8601,-3.0513,-0.8204,0.3004,-0.5069,-3.2780,-3.1781,
5.114779,0.5033,0.1357,0.8503,-3.0513,-0.8204,0.3004,-0.5069,-3.2780,-3.1781,
5.117212,0.5751,0.2044,0.6650,-3.0513,-0.8204,0.3004,-0.5069,-3.2780,-3.1781,
5.132443,0.5751,0.2044,0.6650,-3.0513,-0.8204,0.3004,-0.7458,-4.8541,-3.2733,
5.152623,0.5751,0.2044,0.6650,-2.4612,-1.0828,1.2534,-0.7458,-4.8541,-3.2733,
5.154266,0.6287,0.3122,0.5538,-2.4612,-1.0828,1.2534,-0.7458,-4.8541,-3.2733,
5.154818,0.6433,0.2181,0.5374,-2.4612,-1.0828,1.2534,-0.7458,-4.8541,-3.2733,
5.179836,0.7250,0.2284,0.5596,-2.4612,-1.0828,1.2534,-0.7458,-4.8541,-3.2733,
5.212751,0.7250,0.2284,0.5596,-2.4612,-1.0828,1.2534,-2.1178,-4.9973,-3.2327,
5.214770,0.8888,0.2650,0.5093,-2.4612,-1.0828,1.2534,-2.1178,-4.9973,-3.2327,
5.215797,0.9355,0.2547,0.4086,-2.4612,-1.0828,1.2534,-2.1178,-4.9973,-3.2327,
5.222672,0.9355,0.2547,0.4086,-1.7929,-0.4186,0.6320,-2.1178,-4.9973,-3.2327,
5.242540,0.9418,0.1276,0.3418,-1.7929,-0.4186,0.6320,-2.1178,-4.9973,-3.2327,
5.273073,0.9418,0.1276,0.3418,-1.7929,-0.4186,0.6320,-3.0179,-4.1559,-3.0488,
5.274990,0.8618,0.0416,0.3411,-1.7929,-0.4186,0.6320,-3.0179,-4.1559,-3.0488,
5.293845,0.8618,0.2476,0.4531,-1.7929,-0.4186,0.6320,-3.0179,-4.1559,-3.0488,
5.295732,1.0259,0.3496,0.2461,-1.7929,-0.4186,0.6320,-3.0179,-4.1559,-3.0488,
5.296557,1.0259,0.3496,0.2461,0.0941,-1.0260,0.8228,-3.0179,-4.1559,-3.0488,
5.314576,1.0956,0.3083,0.1370,0.0941,-1.0260,0.8228,-3.0179,-4.1559,-3.0488,
5.333566,1.0956,0.3083,0.1370,0.0941,-1.0260,0.8228,-2.6644,-1.9406,-2.1077,
5.364086,1.0956,0.3083,0.1370,0.6471,-2.0467,0.1269,-2.6644,-1.9406,-2.1077,
5.367945,1.1305,0.1413,0.1690,0.6471,-2.0467,0.1269,-2.6644,-1.9406,-2.1077,
5.368839,1.0394,0.1352,0.3509,0.6471,-2.0467,0.1269,-2.6644,-1.9406,-2.1077,
5.380237,0.9085,0.4549,0.4389,0.6471,-2.0467,0.1269,-2.6644,-1.9406,-2.1077,
5.414797,1.0078,0.5442,0.2011,0.6471,-2.0467,0.1269,-2.6644,-1.9406,-2.1077,
5.416542,1.0078,0.5442,0.2011,0.6471,-2.0467,0.1269,-2.1110,-0.9088,-1.8921,
5.417450,1.0276,0.4897,0.2228,0.6471,-2.0467,0.1269,-2.1110,-0.9088,-1.8921,
5.433935,0.9861,0.5058,0.2284,0.6471,-2.0467,0.1269,-2.1110,-0.9088,-1.8921,
5.436034,0.9861,0.5058,0.2284,2.3151,-2.2214,-0.8657,-2.1110,-0.9088,-1.8921,
5.473604,0.9156,0.5388,0.3580,2.3151,-2.2214,-0.8657,-2.1110,-0.9088,-1.8921,
5.475098,0.9156,0.5388,0.3580,2.3151,-2.2214,-0.8657,-1.7913,-0.9105,-1.1648,
5.503645,0.9156,0.5388,0.3580,1.8281,0.3467,-1.0542,-1.7913,-0.9105,-1.1648,
5.505525,0.8633,0.5160,0.3436,1.8281,0.3467,-1.0542,-1.7913,-0.9105,-1.1648,
5.506179,0.8670,0.5041,0.3971,1.8281,0.3467,-1.0542,-1.7913,-0.9105,-1.1648,
5.506842,0.8670,0.5041,0.3971,1.8836,0.2424,-1.0992,-1.7913,-0.9105,-1.1648,
5.513669,0.9066,0.4938,0.4176,1.8836,0.2424,-1.0992,-1.7913,-0.9105,-1.1648,
5.533747,0.9066,0.4938,0.4176,1.8836,0.2424,-1.0992,-0.6915,-0.5682,-0.3057,
5.574456,0.9066,0.4938,0.4176,0.7353,0.2877,0.3147,-0.6915,-0.5682,-0.3057,
5.576433,0.8880,0.5520,0.2802,0.7353,0.2877,0.3147,-0.6915,-0.5682,-0.3057,
5.577115,0.8814,0.6082,0.2563,0.7353,0.2877,0.3147,-0.6915,-0.5682,-0.3057,
5.577707,0.9129,0.6109,0.3663,0.7353,0.2877,0.3147,-0.6915,-0.5682,-0.3057,
5.606138,0.9445,0.5752,0.4338,0.7353,0.2877,0.3147,-0.6915,-0.5682,-0.3057,
5.622022,0.9445,0.5752,0.4338,0.7353,0.2877,0.3147,-0.0917,0.2361,0.3996,
5.623904,0.9501,0.5997,0.4949,0.7353,0.2877,0.3147,-0.0917,0.2361,0.3996,
5.624721,0.8347,0.6368,0.4040,0.7353,0.2877,0.3147,-0.0917,0.2361,0.3996,
5.628650,0.8382,0.6426,0.4020,0.7353,0.2877,0.3147,-0.0917,0.2361,0.3996,
5.630978,0.8299,0.6358,0.3888,0.7353,0.2877,0.3147,-0.0917,0.2361,0.3996,
5.631881,0.8279,0.6299,0.3951,0.7353,0.2877,0.3147,-0.0917,0.2361,0.3996,
5.635155,0.8206,0.6256,0.3922,0.7353,0.2877,0.3147,-0.0917,0.2361,0.3996,
5.636483,0.8122,0.6153,0.3702,0.7353,0.2877,0.3147,-0.0917,0.2361,0.3996,
5.639026,0.8098,0.6065,0.3551,0.7353,0.2877,0.3147,-0.0917,0.2361,0.3996,
5.640903,0.8039,0.6065,0.3429,0.7353,0.2877,0.3147,-0.0917,0.2361,0.3996,
5.643436,0.7946,0.6060,0.3316,0.7353,0.2877,0.3147,-0.0917,0.2361,0.3996,
5.646037,0.7883,0.6041,0.3184,0.7353,0.2877,0.3147,-0.0917,0.2361,0.3996,
5.649393,0.7863,0.5972,0.3101,0.7353,0.2877,0.3147,-0.0917,0.2361,0.3996,
5.651371,0.7810,0.5972,0.3057,0.7353,0.2877,0.3147,-0.0917,0.2361,0.3996,
5.654970,0.7717,0.5958,0.2993,0.7353,0.2877,0.3147,-0.0917,0.2361,0.3996,
5.656295,0.7599,0.5913,0.2974,0.7353,0.2877,0.3147,-0.0917,0.2361,0.3996,
5.658842,0.7536,0.5963,0.3008,0.7353,0.2877,0.3147,-0.0917,0.2361,0.3996,
5.661864,0.7413,0.5972,0.3125,0.7353,0.2877,0.3147,-0.0917,0.2361,0.3996,
5.665312,0.7306,0.6041,0.3150,0.7353,0.2877,0.3147,-0.0917,0.2361,0.3996,
5.666362,0.7287,0.6143,0.3130,0.7353,0.2877,0.3147,-0.0917,0.2361,0.3996,
5.669186,0.7321,0.6177,0.3155,0.7353,0.2877,0.3147,-0.0917,0.2361,0.3996,
5.671570,0.7326,0.6231,0.3111,0.7353,0.2877,0.3147,-0.0917,0.2361,0.3996,
5.674152,0.7457,0.6192,0.3086,0.7353,0.2877,0.3147,-0.0917,0.2361,0.3996,
5.674984,0.7457,0.6192,0.3086,0.7353,0.2877,0.3147,0.2419,-1.0517,0.1595,
5.677790,0.7599,0.6153,0.3003,0.7353,0.2877,0.3147,0.2419,-1.0517,0.1595,
5.678764,0.7746,0.6182,0.3008,0.7353,0.2877,0.3147,0.2419,-1.0517,0.1595,
5.681859,0.7971,0.6104,0.3091,0.7353,0.2877,0.3147,0.2419,-1.0517,0.1595,
5.683862,0.8206,0.6021,0.3296,0.7353,0.2877,0.3147,0.2419,-1.0517,0.1595,
5.688137,0.8406,0.5987,0.3502,0.7353,0.2877,0.3147,0.2419,-1.0517,0.1595,
5.692045,0.8406,0.5987,0.3502,0.6711,1.1433,-0.3209,0.2419,-1.0517,0.1595,
5.692707,0.8406,0.5987,0.3502,0.4326,1.0921,0.3425,0.2419,-1.0517,0.1595,
5.693370,0.8416,0.5928,0.3683,0.4326,1.0921,0.3425,0.2419,-1.0517,0.1595,
5.693944,0.8386,0.5937,0.3893,0.4326,1.0921,0.3425,0.2419,-1.0517,0.1595,
5.694457,0.8357,0.5967,0.3996,0.4326,1.0921,0.3425,0.2419,-1.0517,0.1595,
5.696968,0.8338,0.5884,0.4015,0.4326,1.0921,0.3425,0.2419,-1.0517,0.1595,
5.700841,0.8382,0.5693,0.4035,0.4326,1.0921,0.3425,0.2419,-1.0517,0.1595,
5.701435,0.8382,0.5527,0.4015,0.4326,1.0921,0.3425,0.2419,-1.0517,0.1595,
5.704640,0.8225,0.5478,0.4089,0.4326,1.0921,0.3425,0.2419,-1.0517,0.1595,
5.706320,0.8005,0.5385,0.4147,0.4326,1.0921,0.3425,0.2419,-1.0517,0.1595,
5.709618,0.7628,0.5410,0.4162,0.4326,1.0921,0.3425,0.2419,-1.0517,0.1595,
5.711443,0.7140,0.5444,0.4079,0.4326,1.0921,0.3425,0.2419,-1.0517,0.1595,
5.714222,0.6724,0.5518,0.4035,0.4326,1.0921,0.3425,0.2419,-1.0517,0.1595,
5.716300,0.6533,0.5508,0.4049,0.4326,1.0921,0.3425,0.2419,-1.0517,0.1595,
5.721699,0.6397,0.5444,0.4025,0.4326,1.0921,0.3425,0.2419,-1.0517,0.1595,
5.722516,0.6304,0.5346,0.3585,0.4326,1.0921,0.3425,0.2419,-1.0517,0.1595,
5.726124,0.6270,0.5258,0.3311,0.4326,1.0921,0.3425,0.2419,-1.0517,0.1595,
5.742622,0.6270,0.5258,0.3311,0.4326,1.0921,0.3425,0.2519,-0.4008,-0.2152,
5.792256,0.7509,0.3841,0.5452,0.4326,1.0921,0.3425,0.2519,-0.4008,-0.2152,
5.814665,0.8034,0.3384,0.5372,0.4326,1.0921,0.3425,0.2519,-0.4008,-0.2152,
5.816100,0.8034,0.3384,0.5372,0.4326,1.0921,0.3425,1.0546,1.3080,0.1672,
5.816741,0.8034,0.3384,0.5372,-0.5457,1.2276,0.7943,1.0546,1.3080,0.1672,
5.817138,0.8034,0.3384,0.5372,-0.3690,1.1303,0.4109,1.0546,1.3080,0.1672,
5.859203,0.8306,0.3802,0.4624,-0.3690,1.1303,0.4109,1.0546,1.3080,0.1672,
5.861582,0.7900,0.3797,0.4868,-0.3690,1.1303,0.4109,1.0546,1.3080,0.1672,
5.875071,0.7900,0.3797,0.4868,-0.3690,1.1303,0.4109,0.7518,0.4522,-0.3276,
5.876501,0.7734,0.4019,0.3941,-0.3690,1.1303,0.4109,0.7518,0.4522,-0.3276,
5.885769,0.7968,0.4209,0.4450,-0.3690,1.1303,0.4109,0.7518,0.4522,-0.3276,
5.887332,0.7968,0.4209,0.4450,-0.3764,-1.3105,2.3027,0.7518,0.4522,-0.3276,
5.913933,0.7983,0.3635,0.4927,-0.3764,-1.3105,2.3027,0.7518,0.4522,-0.3276,
5.926950,0.7570,0.3628,0.4406,-0.3764,-1.3105,2.3027,0.7518,0.4522,-0.3276,
5.935187,0.7570,0.3628,0.4406,-0.3764,-1.3105,2.3027,-0.3547,-0.0450,0.0032,
5.955712,0.7216,0.3696,0.4250,-0.3764,-1.3105,2.3027,-0.3547,-0.0450,0.0032,
5.957148,0.7216,0.3696,0.4250,-0.1710,-1.1645,1.2541,-0.3547,-0.0450,0.0032,
5.992152,0.7113,0.4029,0.3979,-0.1710,-1.1645,1.2541,-0.3547,-0.0450,0.0032,
5.994269,0.6837,0.4285,0.4157,-0.1710,-1.1645,1.2541,-0.3547,-0.0450,0.0032,
6.014480,0.6649,0.4092,0.4301,-0.1710,-1.1645,1.2541,-0.3547,-0.0450,0.0032,
6.016336,0.6649,0.4092,0.4301,-0.1710,-1.1645,1.2541,-0.3471,-0.2593,0.0317,
6.025632,0.7008,0.5168,0.4152,-0.1710,-1.1645,1.2541,-0.3471,-0.2593,0.0317,
6.027452,0.7008,0.5168,0.4152,-0.5621,-1.4222,1.3029,-0.3471,-0.2593,0.0317,
6.059462,0.6025,0.4679,0.3858,-0.5621,-1.4222,1.3029,-0.3471,-0.2593,0.0317,
6.076459,0.5678,0.4623,0.3944,-0.5621,-1.4222,1.3029,-0.3471,-0.2593,0.0317,
6.078442,0.5678,0.4623,0.3944,-0.5621,-1.4222,1.3029,-0.1607,-0.1535,0.0605,
6.095953,0.5678,0.4623,0.3944,-1.2789,-0.4733,0.9782,-0.1607,-0.1535,0.0605,
6.097310,0.6619,0.4916,0.4225,-1.2789,-0.4733,0.9782,-0.1607,-0.1535,0.0605,
6.113909,0.7042,0.6368,0.3812,-1.2789,-0.4733,0.9782,-0.1607,-0.1535,0.0605,
6.125854,0.7269,0.7141,0.4091,-1.2789,-0.4733,0.9782,-0.1607,-0.1535,0.0605,
6.135975,0.7269,0.7141,0.4091,-1.2789,-0.4733,0.9782,0.1839,-0.1210,-0.5921,
6.166392,0.7269,0.7141,0.4091,-1.7654,-0.2423,0.8570,0.1839,-0.1210,-0.5921,
6.169147,0.8042,0.7207,0.4907,-1.7654,-0.2423,0.8570,0.1839,-0.1210,-0.5921,
6.170167,0.8802,0.6781,0.5230,-1.7654,-0.2423,0.8570,0.1839,-0.1210,-0.5921,
6.170917,0.8802,0.6781,0.5230,-1.6506,-0.4405,0.9681,0.1839,-0.1210,-0.5921,
6.192203,0.9320,0.6698,0.4780,-1.6506,-0.4405,0.9681,0.1839,-0.1210,-0.5921,
6.196529,0.9320,0.6698,0.4780,-1.6506,-0.4405,0.9681,0.1692,-0.3349,-0.0810,
6.214306,0.9416,0.7255,0.3810,-1.6506,-0.4405,0.9681,0.1692,-0.3349,-0.0810,
6.236549,0.9406,0.7324,0.2884,-1.6506,-0.4405,0.9681,0.1692,-0.3349,-0.0810,
6.238051,0.9406,0.7324,0.2884,-0.0420,1.4532,1.8564,0.1692,-0.3349,-0.0810,
6.259870,0.9061,0.7131,0.2150,-0.0420,1.4532,1.8564,0.1692,-0.3349,-0.0810,
6.276754,0.9022,0.6102,0.2663,-0.0420,1.4532,1.8564,0.1692,-0.3349,-0.0810,
6.278189,0.9022,0.6102,0.2663,-0.0420,1.4532,1.8564,-0.6570,-0.6110,-0.2328,
6.306648,0.9022,0.6102,0.2663,1.2724,1.6922,0.7564,-0.6570,-0.6110,-0.2328,
6.309924,0.8736,0.5148,0.2287,1.2724,1.6922,0.7564,-0.6570,-0.6110,-0.2328,
6.310849,0.8805,0.5178,0.1378,1.2724,1.6922,0.7564,-0.6570,-0.6110,-0.2328,
6.336621,0.8922,0.5331,0.0825,1.2724,1.6922,0.7564,-0.6570,-0.6110,-0.2328,
6.338033,0.8922,0.5331,0.0825,1.2724,1.6922,0.7564,-1.1097,-0.3297,0.0162,
6.377278,0.8922,0.5331,0.0825,0.7631,0.4467,-0.8443,-1.1097,-0.3297,0.0162,
6.379885,0.8697,0.5425,0.0774,0.7631,0.4467,-0.8443,-1.1097,-0.3297,0.0162,
6.380879,0.8386,0.4591,0.1256,0.7631,0.4467,-0.8443,-1.1097,-0.3297,0.0162,
6.392624,0.7890,0.4031,0.1253,0.7631,0.4467,-0.8443,-1.1097,-0.3297,0.0162,
6.400229,0.7890,0.4031,0.1253,0.7631,0.4467,-0.8443,-1.6833,-0.5845,0.0915,
6.414652,0.8015,0.3965,0.1179,0.7631,0.4467,-0.8443,-1.6833,-0.5845,0.0915,
6.447553,0.8015,0.3965,0.1179,0.3110,0.0995,-2.1389,-1.6833,-0.5845,0.0915,
6.449279,0.7900,0.3897,0.1356,0.3110,0.0995,-2.1389,-1.6833,-0.5845,0.0915,
6.449942,0.7601,0.3936,0.1590,0.3110,0.0995,-2.1389,-1.6833,-0.5845,0.0915,
6.477532,0.7645,0.3931,0.1322,0.3110,0.0995,-2.1389,-1.6833,-0.5845,0.0915,
6.478500,0.7645,0.3931,0.1322,0.3110,0.0995,-2.1389,-1.2628,-0.5819,-0.0679,
6.514967,0.8012,0.4200,0.1702,0.3110,0.0995,-2.1389,-1.2628,-0.5819,-0.0679,
6.517121,0.8477,0.4043,0.2099,0.3110,0.0995,-2.1389,-1.2628,-0.5819,-0.0679,
6.517850,0.8477,0.4043,0.2099,-0.4895,-0.6688,-1.8229,-1.2628,-0.5819,-0.0679,
6.537337,0.8611,0.4706,0.1739,-0.4895,-0.6688,-1.8229,-1.2628,-0.5819,-0.0679,
6.538844,0.8611,0.4706,0.1739,-0.4895,-0.6688,-1.8229,-0.5996,-0.4839,-0.3794,
6.588627,0.8980,0.4742,0.2128,-0.4895,-0.6688,-1.8229,-0.5996,-0.4839,-0.3794,
6.591016,0.9535,0.4808,0.2262,-0.4895,-0.6688,-1.8229,-0.5996,-0.4839,-0.3794,
6.592428,0.9733,0.5090,0.1996,-0.4895,-0.6688,-1.8229,-0.5996,-0.4839,-0.3794,
6.593314,0.9733,0.5090,0.1996,-0.1983,-0.5048,-1.4060,-0.5996,-0.4839,-0.3794,
6.594095,0.9733,0.5090,0.1996,-0.1803,-0.6425,-1.1970,-0.5996,-0.4839,-0.3794,
6.600137,0.9733,0.5090,0.1996,-0.1803,-0.6425,-1.1970,-0.2526,-0.5047,-0.3102,
6.613886,0.9596,0.4786,0.2238,-0.1803,-0.6425,-1.1970,-0.2526,-0.5047,-0.3102,
6.658776,0.9596,0.4786,0.2238,0.9030,0.1171,-0.7793,-0.2526,-0.5047,-0.3102,
6.661305,0.9247,0.4613,0.2480,0.9030,0.1171,-0.7793,-0.2526,-0.5047,-0.3102,
6.662115,0.9276,0.3887,0.2873,0.9030,0.1171,-0.7793,-0.2526,-0.5047,-0.3102,
6.678622,0.9186,0.3684,0.2991,0.9030,0.1171,-0.7793,-0.2526,-0.5047,-0.3102,
6.680919,0.9186,0.3684,0.2991,0.9030,0.1171,-0.7793,-0.0664,-0.0935,0.1040,
6.715342,0.9005,0.3785,0.2590,0.9030,0.1171,-0.7793,-0.0664,-0.0935,0.1040,
6.717685,0.8941,0.4104,0.2441,0.9030,0.1171,-0.7793,-0.0664,-0.0935,0.1040,
6.728288,0.8941,0.4104,0.2441,0.9383,-0.4641,-0.1366,-0.0664,-0.0935,0.1040,
6.730209,0.8856,0.3711,0.2497,0.9383,-0.4641,-0.1366,-0.0664,-0.0935,0.1040,
6.738025,0.8856,0.3711,0.2497,0.9383,-0.4641,-0.1366,0.1518,-0.1991,-0.1176,
6.792157,0.8807,0.3508,0.2370,0.9383,-0.4641,-0.1366,0.1518,-0.1991,-0.1176,
6.794139,0.8768,0.3890,0.2463,0.9383,-0.4641,-0.1366,0.1518,-0.1991,-0.1176,
6.795861,0.8687,0.3850,0.2761,0.9383,-0.4641,-0.1366,0.1518,-0.1991,-0.1176,
6.799334,0.8687,0.3850,0.2761,0.9383,-0.4641,-0.1366,-0.3635,-0.2140,-0.0328,
6.800585,0.8687,0.3850,0.2761,0.5193,-0.9433,-0.0717,-0.3635,-0.2140,-0.0328,
6.814367,0.8633,0.3752,0.3113,0.5193,-0.9433,-0.0717,-0.3635,-0.2140,-0.0328,
6.859176,0.8604,0.3163,0.2959,0.5193,-0.9433,-0.0717,-0.3635,-0.2140,-0.0328,
6.861609,0.8733,0.3073,0.2548,0.5193,-0.9433,-0.0717,-0.3635,-0.2140,-0.0328,
6.868921,0.9176,0.3552,0.2128,0.5193,-0.9433,-0.0717,-0.3635,-0.2140,-0.0328,
6.870289,0.9176,0.3552,0.2128,0.2858,-0.9281,-0.0967,-0.3635,-0.2140,-0.0328,
6.878766,0.9176,0.3552,0.2128,0.2858,-0.9281,-0.0967,-0.2178,0.0940,0.2857,
6.914571,0.9516,0.4163,0.2213,0.2858,-0.9281,-0.0967,-0.2178,0.0940,0.2857,
6.917245,0.9499,0.3261,0.2712,0.2858,-0.9281,-0.0967,-0.2178,0.0940,0.2857,
6.938765,0.9601,0.3669,0.3084,0.2858,-0.9281,-0.0967,-0.2178,0.0940,0.2857,
6.940328,0.9601,0.3669,0.3084,0.2512,-1.1214,-0.1952,-0.2178,0.0940,0.2857,
6.940917,0.9601,0.3669,0.3084,0.2512,-1.1214,-0.1952,-0.5580,0.1438,0.1506,
6.992972,0.9978,0.4161,0.3330,0.2512,-1.1214,-0.1952,-0.5580,0.1438,0.1506,
6.996059,1.0293,0.4681,0.2950,0.2512,-1.1214,-0.1952,-0.5580,0.1438,0.1506,
6.997393,1.0156,0.4872,0.2746,0.2512,-1.1214,-0.1952,-0.5580,0.1438,0.1506,
7.002501,1.0156,0.4872,0.2746,0.2512,-1.1214,-0.1952,-0.0855,0.1708,0.3286,
7.011682,1.0232,0.5314,0.3181,0.2512,-1.1214,-0.1952,-0.0855,0.1708,0.3286,
7.013603,1.0232,0.5314,0.3181,1.0072,-0.5354,-0.3037,-0.0855,0.1708,0.3286,
7.014639,1.0232,0.5314,0.3181,0.9362,-0.3502,-0.3872,-0.0855,0.1708,0.3286,
7.059608,1.1329,0.5478,0.4575,0.9362,-0.3502,-0.3872,-0.0855,0.1708,0.3286,
7.062150,1.1271,0.5886,0.4135,0.9362,-0.3502,-0.3872,-0.0855,0.1708,0.3286,
7.079625,1.0141,0.6158,0.3734,0.9362,-0.3502,-0.3872,-0.0855,0.1708,0.3286,
7.081353,1.0141,0.6158,0.3734,1.5778,0.7488,-0.3102,-0.0855,0.1708,0.3286,
7.081991,1.0141,0.6158,0.3734,1.5778,0.7488,-0.3102,0.3853,0.5156,0.1993,
7.114463,0.8112,0.6351,0.2375,1.5778,0.7488,-0.3102,0.3853,0.5156,0.1993,
7.115972,0.6898,0.5879,0.2226,1.5778,0.7488,-0.3102,0.3853,0.5156,0.1993,
7.139500,0.6898,0.5879,0.2226,1.5778,0.7488,-0.3102,0.6417,0.5759,0.5481,
7.141521,0.6426,0.5466,0.2663,1.5778,0.7488,-0.3102,0.6417,0.5759,0.5481,
7.149489,0.6011,0.5635,0.2780,1.5778,0.7488,-0.3102,0.6417,0.5759,0.5481,
7.150636,0.6011,0.5635,0.2780,1.8775,1.8759,0.5314,0.6417,0.5759,0.5481,
7.191592,0.5768,0.5845,0.3201,1.8775,1.8759,0.5314,0.6417,0.5759,0.5481,
7.193157,0.6497,0.5295,0.4218,1.8775,1.8759,0.5314,0.6417,0.5759,0.5481,
7.199780,0.6497,0.5295,0.4218,1.8775,1.8759,0.5314,0.9995,1.0965,0.3941,
7.213905,0.7426,0.5358,0.4057,1.8775,1.8759,0.5314,0.9995,1.0965,0.3941,
7.220791,0.7426,0.5358,0.4057,-1.8617,1.7828,-1.2632,0.9995,1.0965,0.3941,
7.242206,0.8260,0.5153,0.4404,-1.8617,1.7828,-1.2632,0.9995,1.0965,0.3941,
7.258389,0.9215,0.5474,0.3941,-1.8617,1.7828,-1.2632,0.9995,1.0965,0.3941,
7.280275,0.9215,0.5474,0.3941,-1.8617,1.7828,-1.2632,1.0695,0.3847,-0.2248,
7.281879,0.9379,0.5031,0.4780,-1.8617,1.7828,-1.2632,1.0695,0.3847,-0.2248,
7.289805,0.9264,0.4222,0.5039,-1.8617,1.7828,-1.2632,1.0695,0.3847,-0.2248,
7.291402,0.9264,0.4222,0.5039,-1.5268,1.1496,0.1090,1.0695,0.3847,-0.2248,
7.314673,0.8783,0.3946,0.4338,-1.5268,1.1496,0.1090,1.0695,0.3847,-0.2248,
7.341071,0.8783,0.3946,0.4338,-1.5268,1.1496,0.1090,-0.1605,-0.1032,0.0356,
7.343143,0.8188,0.3907,0.3692,-1.5268,1.1496,0.1090,-0.1605,-0.1032,0.0356,
7.361128,0.7641,0.3799,0.3035,-1.5268,1.1496,0.1090,-0.1605,-0.1032,0.0356,
7.363462,0.7641,0.3799,0.3035,0.8938,0.4687,0.7925,-0.1605,-0.1032,0.0356,
7.391900,0.7228,0.3765,0.2722,0.8938,0.4687,0.7925,-0.1605,-0.1032,0.0356,
7.393297,0.7282,0.3982,0.2675,0.8938,0.4687,0.7925,-0.1605,-0.1032,0.0356,
7.400398,0.7282,0.3982,0.2675,0.8938,0.4687,0.7925,-0.5289,-0.0868,0.4294,
7.414334,0.7233,0.3811,0.3223,0.8938,0.4687,0.7925,-0.5289,-0.0868,0.4294,
7.430198,0.7389,0.3615,0.4281,0.8938,0.4687,0.7925,-0.5289,-0.0868,0.4294,
7.431577,0.7389,0.3615,0.4281,-0.3066,-0.3287,-0.2448,-0.5289,-0.0868,0.4294,
7.432347,0.7389,0.3615,0.4281,-0.3879,-0.0575,-0.3319,-0.5289,-0.0868,0.4294,
7.458530,0.7753,0.4579,0.3648,-0.3879,-0.0575,-0.3319,-0.5289,-0.0868,0.4294,
7.481397,0.7995,0.4796,0.3514,-0.3879,-0.0575,-0.3319,-0.5289,-0.0868,0.4294,
7.483720,0.7995,0.4796,0.3514,-0.3879,-0.0575,-0.3319,0.6790,0.2570,0.1567,
7.501064,0.8660,0.5134,0.3609,-0.3879,-0.0575,-0.3319,0.6790,0.2570,0.1567,
7.503210,0.8660,0.5134,0.3609,-1.0809,-0.3213,-0.4501,0.6790,0.2570,0.1567,
7.513987,0.8897,0.4598,0.4423,-1.0809,-0.3213,-0.4501,0.6790,0.2570,0.1567,
7.541076,0.8897,0.4598,0.4423,-1.0809,-0.3213,-0.4501,1.3009,0.5188,0.3538,
7.542654,0.8579,0.4190,0.4509,-1.0809,-0.3213,-0.4501,1.3009,0.5188,0.3538,
7.571342,0.8579,0.4190,0.4509,-0.1357,0.6267,-0.0741,1.3009,0.5188,0.3538,
7.573228,0.8587,0.3975,0.4391,-0.1357,0.6267,-0.0741,1.3009,0.5188,0.3538,
7.574267,0.8689,0.4139,0.4364,-0.1357,0.6267,-0.0741,1.3009,0.5188,0.3538,
7.592098,0.8457,0.4352,0.4174,-0.1357,0.6267,-0.0741,1.3009,0.5188,0.3538,
7.601353,0.8457,0.4352,0.4174,-0.1357,0.6267,-0.0741,0.9546,0.7152,0.6334,
7.624270,0.8655,0.4740,0.3873,-0.1357,0.6267,-0.0741,0.9546,0.7152,0.6334,
7.632015,0.8684,0.5029,0.3644,-0.1357,0.6267,-0.0741,0.9546,0.7152,0.6334,
7.633327,0.8753,0.5082,0.3590,-0.1357,0.6267,-0.0741,0.9546,0.7152,0.6334,
7.636448,0.8768,0.5043,0.3614,-0.1357,0.6267,-0.0741,0.9546,0.7152,0.6334,
7.638466,0.8812,0.5019,0.3639,-0.1357,0.6267,-0.0741,0.9546,0.7152,0.6334,
7.640968,0.8866,0.5068,0.3692,-0.1357,0.6267,-0.0741,0.9546,0.7152,0.6334,
7.643720,0.8924,0.5151,0.3688,-0.1357,0.6267,-0.0741,0.9546,0.7152,0.6334,
7.645584,0.8983,0.5175,0.3678,-0.1357,0.6267,-0.0741,0.9546,0.7152,0.6334,
7.648866,0.9002,0.5243,0.3663,-0.1357,0.6267,-0.0741,0.9546,0.7152,0.6334,
7.651295,0.9032,0.5297,0.3678,-0.1357,0.6267,-0.0741,0.9546,0.7152,0.6334,
7.654731,0.9115,0.5341,0.3648,-0.1357,0.6267,-0.0741,0.9546,0.7152,0.6334,
7.656013,0.9154,0.5405,0.3580,-0.1357,0.6267,-0.0741,0.9546,0.7152,0.6334,
7.658486,0.9164,0.5464,0.3580,-0.1357,0.6267,-0.0741,0.9546,0.7152,0.6334,
7.661747,0.9188,0.5508,0.3507,-0.1357,0.6267,-0.0741,0.9546,0.7152,0.6334,
7.664578,0.9173,0.5532,0.3429,-0.1357,0.6267,-0.0741,0.9546,0.7152,0.6334,
7.665402,0.9037,0.5601,0.3311,-0.1357,0.6267,-0.0741,0.9546,0.7152,0.6334,
7.668171,0.8978,0.5581,0.3189,-0.1357,0.6267,-0.0741,0.9546,0.7152,0.6334,
7.670745,0.8910,0.5596,0.3067,-0.1357,0.6267,-0.0741,0.9546,0.7152,0.6334,
7.673361,0.8919,0.5654,0.2866,-0.1357,0.6267,-0.0741,0.9546,0.7152,0.6334,
7.676161,0.8910,0.5815,0.2729,-0.1357,0.6267,-0.0741,0.9546,0.7152,0.6334,
7.678362,0.8880,0.5898,0.2783,-0.1357,0.6267,-0.0741,0.9546,0.7152,0.6334,
7.681751,0.8841,0.5943,0.2773,-0.1357,0.6267,-0.0741,0.9546,0.7152,0.6334,
7.683178,0.8841,0.5943,0.2773,-0.1357,0.6267,-0.0741,0.2118,0.0041,0.3345,
7.683914,0.8914,0.5972,0.2715,-0.1357,0.6267,-0.0741,0.2118,0.0041,0.3345,
7.687831,0.8890,0.5928,0.2705,-0.1357,0.6267,-0.0741,0.2118,0.0041,0.3345,
7.689025,0.8963,0.5958,0.2680,-0.1357,0.6267,-0.0741,0.2118,0.0041,0.3345,
7.690770,0.8958,0.5967,0.2700,-0.1357,0.6267,-0.0741,0.2118,0.0041,0.3345,
7.693553,0.8875,0.5898,0.2754,-0.1357,0.6267,-0.0741,0.2118,0.0041,0.3345,
7.694477,0.8875,0.5898,0.2754,0.2864,0.0922,0.5431,0.2118,0.0041,0.3345,
7.695144,0.8875,0.5898,0.2754,0.2011,0.2075,0.5883,0.2118,0.0041,0.3345,
7.695743,0.8704,0.5894,0.2802,0.2011,0.2075,0.5883,0.2118,0.0041,0.3345,
7.698462,0.8606,0.5815,0.2788,0.2011,0.2075,0.5883,0.2118,0.0041,0.3345,
7.701503,0.8601,0.5718,0.2700,0.2011,0.2075,0.5883,0.2118,0.0041,0.3345,
7.704628,0.8572,0.5723,0.2500,0.2011,0.2075,0.5883,0.2118,0.0041,0.3345,
7.706036,0.8396,0.5703,0.2505,0.2011,0.2075,0.5883,0.2118,0.0041,0.3345,
7.709675,0.8372,0.5688,0.2558,0.2011,0.2075,0.5883,0.2118,0.0041,0.3345,
7.711490,0.8308,0.5630,0.2475,0.2011,0.2075,0.5883,0.2118,0.0041,0.3345,
7.715237,0.8367,0.5654,0.2348,0.2011,0.2075,0.5883,0.2118,0.0041,0.3345,
7.716554,0.8469,0.5640,0.2417,0.2011,0.2075,0.5883,0.2118,0.0041,0.3345,
7.720793,0.8367,0.5698,0.2470,0.2011,0.2075,0.5883,0.2118,0.0041,0.3345,
7.721796,0.8206,0.5664,0.2495,0.2011,0.2075,0.5883,0.2118,0.0041,0.3345,
7.723867,0.8166,0.5596,0.2465,0.2011,0.2075,0.5883,0.2118,0.0041,0.3345,
7.726099,0.8166,0.5552,0.2509,0.2011,0.2075,0.5883,0.2118,0.0041,0.3345,
7.728526,0.8127,0.5474,0.2558,0.2011,0.2075,0.5883,0.2118,0.0041,0.3345,
7.731968,0.8137,0.5385,0.2661,0.2011,0.2075,0.5883,0.2118,0.0041,0.3345,
7.735027,0.7854,0.5312,0.2744,0.2011,0.2075,0.5883,0.2118,0.0041,0.3345,
7.737412,0.7540,0.5156,0.2832,0.2011,0.2075,0.5883,0.2118,0.0041,0.3345,
7.739415,0.7736,0.4941,0.2817,0.2011,0.2075,0.5883,0.2118,0.0041,0.3345,
7.748379,0.7736,0.4941,0.2817,0.2011,0.2075,0.5883,-0.0742,-0.4033,0.0880,
7.801951,0.7736,0.4941,0.2817,0.2011,0.2075,0.5883,0.4385,-0.3718,0.0368,
7.803362,0.8076,0.4745,0.3023,0.2011,0.2075,0.5883,0.4385,-0.3718,0.0368,
7.814669,0.8188,0.4173,0.1906,0.2011,0.2075,0.5883,0.4385,-0.3718,0.0368,
7.822182,0.8188,0.4173,0.1906,0.3603,1.5270,-0.3718,0.4385,-0.3718,0.0368,
7.823915,0.8188,0.4173,0.1906,0.2554,1.5120,-0.1368,0.4385,-0.3718,0.0368,
7.874650,0.8484,0.4330,0.1783,0.2554,1.5120,-0.1368,0.4385,-0.3718,0.0368,
7.876917,0.9229,0.4488,0.2113,0.2554,1.5120,-0.1368,0.4385,-0.3718,0.0368,
7.877795,0.9560,0.4290,0.2624,0.2554,1.5120,-0.1368,0.4385,-0.3718,0.0368,
7.882008,0.9560,0.4290,0.2624,0.2554,1.5120,-0.1368,0.6375,-0.2923,-0.2764,
7.892471,0.9587,0.4021,0.2527,0.2554,1.5120,-0.1368,0.6375,-0.2923,-0.2764,
7.895494,0.9587,0.4021,0.2527,-0.5644,0.2982,-0.4412,0.6375,-0.2923,-0.2764,
7.914182,0.9056,0.3968,0.1889,-0.5644,0.2982,-0.4412,0.6375,-0.2923,-0.2764,
7.941742,0.8653,0.4070,0.1637,-0.5644,0.2982,-0.4412,0.6375,-0.2923,-0.2764,
7.944031,0.8653,0.4070,0.1637,-0.5644,0.2982,-0.4412,-0.0226,0.0225,0.0017,
7.963249,0.8653,0.4070,0.1637,0.6550,-0.0342,-0.5954,-0.0226,0.0225,0.0017,
7.965017,0.8692,0.4405,0.1456,0.6550,-0.0342,-0.5954,-0.0226,0.0225,0.0017,
8.003563,0.9105,0.4601,0.1749,0.6550,-0.0342,-0.5954,-0.0226,0.0225,0.0017,
8.005612,0.9229,0.4867,0.1624,0.6550,-0.0342,-0.5954,-0.0226,0.0225,0.0017,
8.006314,0.9229,0.4867,0.1624,0.6550,-0.0342,-0.5954,-0.1233,0.0138,-0.1515,
8.015118,0.8956,0.4838,0.1475,0.6550,-0.0342,-0.5954,-0.1233,0.0138,-0.1515,
8.032655,0.8728,0.4610,0.1422,0.6550,-0.0342,-0.5954,-0.1233,0.0138,-0.1515,
8.034119,0.8728,0.4610,0.1422,0.1719,-0.1090,-1.2810,-0.1233,0.0138,-0.1515,
8.034758,0.8728,0.4610,0.1422,0.1788,-0.1777,-1.1839,-0.1233,0.0138,-0.1515,
8.063115,0.8606,0.4275,0.1546,0.1788,-0.1777,-1.1839,-0.1233,0.0138,-0.1515,
8.064924,0.8606,0.4275,0.1546,0.1788,-0.1777,-1.1839,0.0483,-0.2003,-0.0662,
8.074204,0.8658,0.4041,0.1781,0.1788,-0.1777,-1.1839,0.0483,-0.2003,-0.0662,
8.103275,0.8697,0.4004,0.1991,0.1788,-0.1777,-1.1839,0.0483,-0.2003,-0.0662,
8.105904,0.8697,0.4004,0.1991,0.3389,0.3248,-1.2279,0.0483,-0.2003,-0.0662,
8.114099,0.8775,0.4119,0.1974,0.3389,0.3248,-1.2279,0.0483,-0.2003,-0.0662,
8.140561,0.8956,0.4408,0.2020,0.3389,0.3248,-1.2279,0.0483,-0.2003,-0.0662,
8.142647,0.8956,0.4408,0.2020,0.3389,0.3248,-1.2279,-0.0236,-0.0129,-0.1229,
8.173422,0.8956,0.4408,0.2020,0.0462,-0.3786,-0.9626,-0.0236,-0.0129,-0.1229,
8.175697,0.9261,0.4618,0.2313,0.0462,-0.3786,-0.9626,-0.0236,-0.0129,-0.1229,
8.176861,0.9142,0.4745,0.2338,0.0462,-0.3786,-0.9626,-0.0236,-0.0129,-0.1229,
8.204490,0.8985,0.4689,0.2790,0.0462,-0.3786,-0.9626,-0.0236,-0.0129,-0.1229,
8.205590,0.8985,0.4689,0.2790,0.0462,-0.3786,-0.9626,-0.4772,-0.1529,-0.1435,
8.214607,0.8763,0.4689,0.2998,0.0462,-0.3786,-0.9626,-0.4772,-0.1529,-0.1435,
8.242850,0.8430,0.4625,0.2734,0.0462,-0.3786,-0.9626,-0.4772,-0.1529,-0.1435,
8.244386,0.8430,0.4625,0.2734,0.4402,0.0701,-0.6334,-0.4772,-0.1529,-0.1435,
8.263508,0.8328,0.4493,0.2849,0.4402,0.0701,-0.6334,-0.4772,-0.1529,-0.1435,
8.265329,0.8328,0.4493,0.2849,0.4402,0.0701,-0.6334,-0.1816,0.2545,0.1819,
8.274285,0.8345,0.4361,0.3142,0.4402,0.0701,-0.6334,-0.1816,0.2545,0.1819,
8.316904,0.8345,0.4361,0.3142,0.0428,0.3123,-0.1848,-0.1816,0.2545,0.1819,
8.320702,0.8333,0.4469,0.3120,0.0428,0.3123,-0.1848,-0.1816,0.2545,0.1819,
8.322433,0.8369,0.4596,0.3089,0.0428,0.3123,-0.1848,-0.1816,0.2545,0.1819,
8.341245,0.8389,0.4740,0.3013,0.0428,0.3123,-0.1848,-0.1816,0.2545,0.1819,
8.344033,0.8389,0.4740,0.3013,0.0428,0.3123,-0.1848,-0.3098,-0.0663,-0.0798,
8.384853,0.8389,0.4740,0.3013,-0.2652,0.1469,0.0210,-0.3098,-0.0663,-0.0798,
8.387695,0.8477,0.4567,0.3199,-0.2652,0.1469,0.0210,-0.3098,-0.0663,-0.0798,
8.389463,0.8513,0.4466,0.3350,-0.2652,0.1469,0.0210,-0.3098,-0.0663,-0.0798,
8.404426,0.8513,0.4466,0.3350,-0.2652,0.1469,0.0210,-0.3888,-0.1406,-0.2069,
8.406556,0.8577,0.4654,0.3152,-0.2652,0.1469,0.0210,-0.3888,-0.1406,-0.2069,
8.414245,0.8636,0.4481,0.3233,-0.2652,0.1469,0.0210,-0.3888,-0.1406,-0.2069,
8.454674,0.8572,0.4449,0.3174,-0.2652,0.1469,0.0210,-0.3888,-0.1406,-0.2069,
8.456965,0.8423,0.4567,0.3086,-0.2652,0.1469,0.0210,-0.3888,-0.1406,-0.2069,
8.458029,0.8423,0.4567,0.3086,-0.1157,0.2354,0.0924,-0.3888,-0.1406,-0.2069,
8.458663,0.8423,0.4567,0.3086,-0.0666,0.1877,0.0231,-0.3888,-0.1406,-0.2069,
8.466177,0.8423,0.4567,0.3086,-0.0666,0.1877,0.0231,-0.1308,0.1174,-0.1453,
8.474100,0.8428,0.4711,0.3367,-0.0666,0.1877,0.0231,-0.1308,0.1174,-0.1453,
8.513827,0.8499,0.4796,0.3521,-0.0666,0.1877,0.0231,-0.1308,0.1174,-0.1453,
8.524488,0.8487,0.4943,0.3221,-0.0666,0.1877,0.0231,-0.1308,0.1174,-0.1453,
8.525616,0.8487,0.4943,0.3221,0.0953,0.0820,-0.1638,-0.1308,0.1174,-0.1453,
8.540889,0.8462,0.4703,0.3067,0.0953,0.0820,-0.1638,-0.1308,0.1174,-0.1453,
8.545113,0.8462,0.4703,0.3067,0.0953,0.0820,-0.1638,-0.2298,0.2004,-0.1095,
8.595129,0.8462,0.4703,0.3067,0.0442,0.3850,-0.1295,-0.2298,0.2004,-0.1095,
8.597143,0.8577,0.4518,0.3145,0.0442,0.3850,-0.1295,-0.2298,0.2004,-0.1095,
8.597857,0.8672,0.4361,0.3135,0.0442,0.3850,-0.1295,-0.2298,0.2004,-0.1095,
8.598456,0.8788,0.4317,0.3228,0.0442,0.3850,-0.1295,-0.2298,0.2004,-0.1095,
8.604425,0.8788,0.4317,0.3228,0.0442,0.3850,-0.1295,-0.3201,-0.0015,-0.0706,
8.665608,0.8788,0.4317,0.3228,0.0442,0.3850,-0.1295,-0.1507,-0.1634,-0.0730,
8.667912,0.8846,0.4349,0.3225,0.0442,0.3850,-0.1295,-0.1507,-0.1634,-0.0730,
8.668767,0.8878,0.4285,0.3306,0.0442,0.3850,-0.1295,-0.1507,-0.1634,-0.0730,
8.669394,0.8873,0.4378,0.3478,0.0442,0.3850,-0.1295,-0.1507,-0.1634,-0.0730,
8.670021,0.8873,0.4378,0.3478,0.2209,0.0200,-0.2932,-0.1507,-0.1634,-0.0730,
8.676399,0.8709,0.4505,0.3482,0.2209,0.0200,-0.2932,-0.1507,-0.1634,-0.0730,
8.714149,0.8401,0.4474,0.3401,0.2209,0.0200,-0.2932,-0.1507,-0.1634,-0.0730,
8.735072,0.8225,0.4308,0.3458,0.2209,0.0200,-0.2932,-0.1507,-0.1634,-0.0730,
8.736445,0.8173,0.4295,0.3507,0.2209,0.0200,-0.2932,-0.1507,-0.1634,-0.0730,
8.736908,0.8173,0.4295,0.3507,0.3549,-0.0472,-0.0440,-0.1507,-0.1634,-0.0730,
8.745540,0.8173,0.4295,0.3507,0.3549,-0.0472,-0.0440,0.1233,0.1386,0.1462,
8.805856,0.8173,0.4295,0.3507,0.3549,-0.0472,-0.0440,0.0013,-0.1079,-0.0750,
8.807941,0.8173,0.4295,0.3507,-0.1519,0.0377,-0.0166,0.0013,-0.1079,-0.0750,
8.808780,0.8396,0.4430,0.3565,-0.1519,0.0377,-0.0166,0.0013,-0.1079,-0.0750,
8.809980,0.8726,0.4791,0.3800,-0.1519,0.0377,-0.0166,0.0013,-0.1079,-0.0750,
8.810508,0.8817,0.5109,0.3788,-0.1519,0.0377,-0.0166,0.0013,-0.1079,-0.0750,
8.866283,0.8817,0.5109,0.3788,-0.1519,0.0377,-0.0166,-0.1308,-0.1009,-0.0037,
8.868697,0.8658,0.5346,0.3377,-0.1519,0.0377,-0.0166,-0.1308,-0.1009,-0.0037,
8.869466,0.8531,0.5268,0.3460,-0.1519,0.0377,-0.0166,-0.1308,-0.1009,-0.0037,
8.870603,0.8423,0.5114,0.3568,-0.1519,0.0377,-0.0166,-0.1308,-0.1009,-0.0037,
8.878180,0.8450,0.4855,0.3854,-0.1519,0.0377,-0.0166,-0.1308,-0.1009,-0.0037,
8.880083,0.8450,0.4855,0.3854,0.1498,0.3845,0.2641,-0.1308,-0.1009,-0.0037,
8.880837,0.8450,0.4855,0.3854,0.1161,0.3787,0.2294,-0.1308,-0.1009,-0.0037,
8.914413,0.8423,0.4598,0.4052,0.1161,0.3787,0.2294,-0.1308,-0.1009,-0.0037,
8.941056,0.8286,0.4505,0.3739,0.1161,0.3787,0.2294,-0.1308,-0.1009,-0.0037,
8.942835,0.8343,0.4308,0.3829,0.1161,0.3787,0.2294,-0.1308,-0.1009,-0.0037,
8.945695,0.8343,0.4308,0.3829,0.1161,0.3787,0.2294,-0.2458,-0.0640,-0.0103,
8.946594,0.8343,0.4308,0.3829,-0.0472,0.6029,0.0997,-0.2458,-0.0640,-0.0103,
9.006466,0.8343,0.4308,0.3829,-0.0472,0.6029,0.0997,-0.5702,0.0449,-0.0152,
9.008923,0.8343,0.3855,0.3753,-0.0472,0.6029,0.0997,-0.5702,0.0449,-0.0152,
9.009899,0.8477,0.3863,0.3531,-0.0472,0.6029,0.0997,-0.5702,0.0449,-0.0152,
9.010767,0.8910,0.3684,0.3976,-0.0472,0.6029,0.0997,-0.5702,0.0449,-0.0152,
9.016464,0.9171,0.3667,0.4404,-0.0472,0.6029,0.0997,-0.5702,0.0449,-0.0152,
9.018828,0.9171,0.3667,0.4404,-0.1653,-0.0147,0.2124,-0.5702,0.0449,-0.0152,
9.064904,0.9000,0.3902,0.3897,-0.1653,-0.0147,0.2124,-0.5702,0.0449,-0.0152,
9.066954,0.8633,0.4224,0.2964,-0.1653,-0.0147,0.2124,-0.5702,0.0449,-0.0152,
9.068203,0.8633,0.4224,0.2964,-0.1653,-0.0147,0.2124,-0.6150,0.0353,0.1120,
9.086019,0.8682,0.4335,0.2536,-0.1653,-0.0147,0.2124,-0.6150,0.0353,0.1120,
9.087717,0.8682,0.4335,0.2536,0.2702,-0.4467,0.0484,-0.6150,0.0353,0.1120,
9.113856,0.8643,0.4112,0.2702,0.2702,-0.4467,0.0484,-0.6150,0.0353,0.1120,
9.141415,0.8496,0.3611,0.2658,0.2702,-0.4467,0.0484,-0.6150,0.0353,0.1120,
9.143679,0.8365,0.3144,0.2470,0.2702,-0.4467,0.0484,-0.6150,0.0353,0.1120,
9.146382,0.8365,0.3144,0.2470,0.2702,-0.4467,0.0484,-0.7518,-0.0447,0.2656,
9.157109,0.8365,0.3144,0.2470,0.1772,0.2463,-0.9677,-0.7518,-0.0447,0.2656,
9.159358,0.8279,0.3547,0.2710,0.1772,0.2463,-0.9677,-0.7518,-0.0447,0.2656,
9.207617,0.8279,0.3547,0.2710,0.1772,0.2463,-0.9677,0.1509,-0.6687,0.2744,
9.210041,0.8557,0.3708,0.2979,0.1772,0.2463,-0.9677,0.1509,-0.6687,0.2744,
9.211316,0.8966,0.4051,0.3118,0.1772,0.2463,-0.9677,0.1509,-0.6687,0.2744,
9.226598,0.9022,0.4559,0.2580,0.1772,0.2463,-0.9677,0.1509,-0.6687,0.2744,
9.228301,0.9022,0.4559,0.2580,-0.3077,-0.1559,-1.2176,0.1509,-0.6687,0.2744,
9.241845,0.8856,0.4549,0.2277,-0.3077,-0.1559,-1.2176,0.1509,-0.6687,0.2744,
9.266767,0.8866,0.3902,0.2617,-0.3077,-0.1559,-1.2176,0.1509,-0.6687,0.2744,
9.269080,0.8866,0.3902,0.2617,-0.3077,-0.1559,-1.2176,0.6459,-1.0205,0.6080,
9.298221,0.8800,0.3679,0.2663,-0.3077,-0.1559,-1.2176,0.6459,-1.0205,0.6080,
9.300825,0.9056,0.3542,0.3883,-0.3077,-0.1559,-1.2176,0.6459,-1.0205,0.6080,
9.301528,0.9056,0.3542,0.3883,-0.1366,0.5012,-0.4083,0.6459,-1.0205,0.6080,
9.302074,0.9056,0.3542,0.3883,-0.4091,0.8693,-0.0022,0.6459,-1.0205,0.6080,
9.340979,0.9173,0.3048,0.4985,-0.4091,0.8693,-0.0022,0.6459,-1.0205,0.6080,
9.342561,0.8809,0.3318,0.4836,-0.4091,0.8693,-0.0022,0.6459,-1.0205,0.6080,
9.346941,0.8809,0.3318,0.4836,-0.4091,0.8693,-0.0022,0.8587,0.8335,0.7586,
9.368268,0.8802,0.3491,0.4958,-0.4091,0.8693,-0.0022,0.8587,0.8335,0.7586,
9.370597,0.8802,0.3491,0.4958,-0.2623,0.5924,-0.2978,0.8587,0.8335,0.7586,
9.407950,0.8958,0.3523,0.4612,-0.2623,0.5924,-0.2978,0.8587,0.8335,0.7586,
9.409500,0.9306,0.4290,0.5113,-0.2623,0.5924,-0.2978,0.8587,0.8335,0.7586,
9.411537,0.9306,0.4290,0.5113,-0.2623,0.5924,-0.2978,1.3763,1.1952,0.1205,
9.437387,0.9306,0.4290,0.5113,0.0200,-0.1883,1.2439,1.3763,1.1952,0.1205,
9.438713,0.9873,0.4907,0.5103,0.0200,-0.1883,1.2439,1.3763,1.1952,0.1205,
9.439337,1.0010,0.4899,0.5228,0.0200,-0.1883,1.2439,1.3763,1.1952,0.1205,
9.468831,1.0010,0.4899,0.5228,0.0200,-0.1883,1.2439,0.2293,0.1318,-0.6501,
9.471380,1.0141,0.4691,0.4873,0.0200,-0.1883,1.2439,0.2293,0.1318,-0.6501,
9.508851,1.0141,0.4691,0.4873,0.8101,0.6592,1.4046,0.2293,0.1318,-0.6501,
9.510835,0.9905,0.4608,0.4553,0.8101,0.6592,1.4046,0.2293,0.1318,-0.6501,
9.512458,1.0474,0.4342,0.3915,0.8101,0.6592,1.4046,0.2293,0.1318,-0.6501,
9.540890,0.8088,0.4931,0.0207,0.8101,0.6592,1.4046,0.2293,0.1318,-0.6501,
9.543095,0.8054,0.3535,0.1356,0.8101,0.6592,1.4046,0.2293,0.1318,-0.6501,
9.548336,0.8054,0.3535,0.1356,0.8101,0.6592,1.4046,-0.6925,-1.6243,-0.9939,
9.578643,0.8054,0.3535,0.1356,0.9231,0.3007,0.7802,-0.6925,-1.6243,-0.9939,
9.580998,0.7985,0.3170,0.1702,0.9231,0.3007,0.7802,-0.6925,-1.6243,-0.9939,
9.581998,0.7470,0.2790,0.0957,0.9231,0.3007,0.7802,-0.6925,-1.6243,-0.9939,
9.596180,0.6959,0.2819,0.0378,0.9231,0.3007,0.7802,-0.6925,-1.6243,-0.9939,
9.598733,0.6890,0.2995,0.0754,0.9231,0.3007,0.7802,-0.6925,-1.6243,-0.9939,
9.600142,0.6964,0.3102,0.0690,0.9231,0.3007,0.7802,-0.6925,-1.6243,-0.9939,
9.603547,0.6851,0.3274,0.0676,0.9231,0.3007,0.7802,-0.6925,-1.6243,-0.9939,
9.604959,0.6846,0.3430,0.0646,0.9231,0.3007,0.7802,-0.6925,-1.6243,-0.9939,
9.608732,0.6846,0.3430,0.0646,0.9231,0.3007,0.7802,-0.9023,-0.8939,-0.6419,
9.609613,0.6866,0.3542,0.0651,0.9231,0.3007,0.7802,-0.9023,-0.8939,-0.6419,
9.610302,0.6881,0.3708,0.0568,0.9231,0.3007,0.7802,-0.9023,-0.8939,-0.6419,
9.613473,0.6998,0.3821,0.0524,0.9231,0.3007,0.7802,-0.9023,-0.8939,-0.6419,
9.615750,0.7140,0.3909,0.0588,0.9231,0.3007,0.7802,-0.9023,-0.8939,-0.6419,
9.617727,0.7140,0.3987,0.0651,0.9231,0.3007,0.7802,-0.9023,-0.8939,-0.6419,
9.620543,0.7111,0.3992,0.0754,0.9231,0.3007,0.7802,-0.9023,-0.8939,-0.6419,
9.622702,0.7179,0.4041,0.0911,0.9231,0.3007,0.7802,-0.9023,-0.8939,-0.6419,
9.625220,0.7282,0.4100,0.0945,0.9231,0.3007,0.7802,-0.9023,-0.8939,-0.6419,
9.628075,0.7301,0.4168,0.0955,0.9231,0.3007,0.7802,-0.9023,-0.8939,-0.6419,
9.631702,0.7355,0.4202,0.0999,0.9231,0.3007,0.7802,-0.9023,-0.8939,-0.6419,
9.633130,0.7462,0.4325,0.1004,0.9231,0.3007,0.7802,-0.9023,-0.8939,-0.6419,
9.636552,0.7648,0.4569,0.1047,0.9231,0.3007,0.7802,-0.9023,-0.8939,-0.6419,
9.637927,0.7854,0.4711,0.1130,0.9231,0.3007,0.7802,-0.9023,-0.8939,-0.6419,
9.640124,0.8015,0.4853,0.1317,0.9231,0.3007,0.7802,-0.9023,-0.8939,-0.6419,
9.642649,0.8201,0.5014,0.1546,0.9231,0.3007,0.7802,-0.9023,-0.8939,-0.6419,
9.645752,0.8406,0.5121,0.1845,0.9231,0.3007,0.7802,-0.9023,-0.8939,-0.6419,
9.648455,0.8728,0.5136,0.2123,0.9231,0.3007,0.7802,-0.9023,-0.8939,-0.6419,
9.650227,0.8968,0.5165,0.2323,0.9231,0.3007,0.7802,-0.9023,-0.8939,-0.6419,
9.653752,0.9212,0.5112,0.2612,0.9231,0.3007,0.7802,-0.9023,-0.8939,-0.6419,
9.655610,0.9408,0.5063,0.2827,0.9231,0.3007,0.7802,-0.9023,-0.8939,-0.6419,
9.657804,0.9565,0.5082,0.3047,0.9231,0.3007,0.7802,-0.9023,-0.8939,-0.6419,
9.660522,0.9701,0.5024,0.3179,0.9231,0.3007,0.7802,-0.9023,-0.8939,-0.6419,
9.661420,0.9701,0.5024,0.3179,-0.9123,-0.9983,-1.3316,-0.9023,-0.8939,-0.6419,
9.662618,0.9701,0.5024,0.3179,-0.7115,-1.4883,-1.0088,-0.9023,-0.8939,-0.6419,
9.663423,0.9784,0.5058,0.3267,-0.7115,-1.4883,-1.0088,-0.9023,-0.8939,-0.6419,
9.665645,0.9823,0.5082,0.3350,-0.7115,-1.4883,-1.0088,-0.9023,-0.8939,-0.6419,
9.668231,0.9883,0.5112,0.3374,-0.7115,-1.4883,-1.0088,-0.9023,-0.8939,-0.6419,
9.669420,0.9883,0.5112,0.3374,-0.7115,-1.4883,-1.0088,0.4687,-0.2529,-0.9140,
9.670322,0.9917,0.5156,0.3291,-0.7115,-1.4883,-1.0088,0.4687,-0.2529,-0.9140,
9.672981,0.9985,0.5326,0.3125,-0.7115,-1.4883,-1.0088,0.4687,-0.2529,-0.9140,
9.676208,1.0019,0.5488,0.2959,-0.7115,-1.4883,-1.0088,0.4687,-0.2529,-0.9140,
9.677695,0.9956,0.5762,0.2788,-0.7115,-1.4883,-1.0088,0.4687,-0.2529,-0.9140,
9.680301,0.9931,0.5967,0.2529,-0.7115,-1.4883,-1.0088,0.4687,-0.2529,-0.9140,
9.683298,0.9868,0.6212,0.2260,-0.7115,-1.4883,-1.0088,0.4687,-0.2529,-0.9140,
9.687502,0.9784,0.6441,0.2011,-0.7115,-1.4883,-1.0088,0.4687,-0.2529,-0.9140,
9.688792,0.9643,0.6681,0.1854,-0.7115,-1.4883,-1.0088,0.4687,-0.2529,-0.9140,
9.691878,0.9540,0.6852,0.1693,-0.7115,-1.4883,-1.0088,0.4687,-0.2529,-0.9140,
9.693478,0.9501,0.6901,0.1575,-0.7115,-1.4883,-1.0088,0.4687,-0.2529,-0.9140,
9.695497,0.9545,0.6920,0.1571,-0.7115,-1.4883,-1.0088,0.4687,-0.2529,-0.9140,
9.698600,0.9501,0.6935,0.1629,-0.7115,-1.4883,-1.0088,0.4687,-0.2529,-0.9140,
9.700480,0.9462,0.6876,0.1717,-0.7115,-1.4883,-1.0088,0.4687,-0.2529,-0.9140,
9.702986,0.9403,0.6705,0.1791,-0.7115,-1.4883,-1.0088,0.4687,-0.2529,-0.9140,
9.705457,0.9408,0.6530,0.1918,-0.7115,-1.4883,-1.0088,0.4687,-0.2529,-0.9140,
9.711436,0.9379,0.6358,0.2099,-0.7115,-1.4883,-1.0088,0.4687,-0.2529,-0.9140,
9.712183,0.9286,0.6202,0.2182,-0.7115,-1.4883,-1.0088,0.4687,-0.2529,-0.9140,
9.742746,0.9306,0.5980,0.2736,-0.7115,-1.4883,-1.0088,0.4687,-0.2529,-0.9140,
9.749185,0.9306,0.5980,0.2736,-0.7115,-1.4883,-1.0088,1.0560,-0.3433,-0.6644,
9.781310,0.9477,0.5603,0.3968,-0.7115,-1.4883,-1.0088,1.0560,-0.3433,-0.6644,
9.809683,0.9477,0.5603,0.3968,-0.7115,-1.4883,-1.0088,0.6907,0.0828,-0.4683,
9.811892,0.8853,0.5285,0.3401,-0.7115,-1.4883,-1.0088,0.6907,0.0828,-0.4683,
9.812546,0.8853,0.5285,0.3401,-0.6875,-1.1835,-0.5486,0.6907,0.0828,-0.4683,
9.813888,0.8853,0.5285,0.3401,-0.5029,-1.4760,-0.3669,0.6907,0.0828,-0.4683,
9.847610,0.8430,0.5219,0.2600,-0.5029,-1.4760,-0.3669,0.6907,0.0828,-0.4683,
9.849375,0.8110,0.4598,0.2707,-0.5029,-1.4760,-0.3669,0.6907,0.0828,-0.4683,
9.869385,0.7749,0.4525,0.2795,-0.5029,-1.4760,-0.3669,0.6907,0.0828,-0.4683,
9.871477,0.7749,0.4525,0.2795,-0.5029,-1.4760,-0.3669,0.6186,-0.2583,-0.2599,
9.879716,0.7656,0.5019,0.2653,-0.5029,-1.4760,-0.3669,0.6186,-0.2583,-0.2599,
9.882742,0.7656,0.5019,0.2653,0.9216,-0.3899,1.9311,0.6186,-0.2583,-0.2599,
9.915505,0.7453,0.4686,0.3184,0.9216,-0.3899,1.9311,0.6186,-0.2583,-0.2599,
9.929860,0.7453,0.4686,0.3184,0.9216,-0.3899,1.9311,0.5652,-0.3794,-0.0987,
9.932067,0.6820,0.4569,0.2688,0.9216,-0.3899,1.9311,0.5652,-0.3794,-0.0987,
9.949415,0.6570,0.4801,0.2299,0.9216,-0.3899,1.9311,0.5652,-0.3794,-0.0987,
9.950863,0.6570,0.4801,0.2299,-0.1649,-1.3024,1.6009,0.5652,-0.3794,-0.0987,
9.981091,0.6956,0.4457,0.2475,-0.1649,-1.3024,1.6009,0.5652,-0.3794,-0.0987,
9.984048,0.7941,0.4300,0.2783,-0.1649,-1.3024,1.6009,0.5652,-0.3794,-0.0987,
10.009876,0.7941,0.4300,0.2783,-0.1649,-1.3024,1.6009,0.4505,-0.2126,-0.3916,
10.011475,0.8416,0.4798,0.3264,-0.1649,-1.3024,1.6009,0.4505,-0.2126,-0.3916,
10.021476,0.8469,0.5769,0.3008,-0.1649,-1.3024,1.6009,0.4505,-0.2126,-0.3916,
10.022622,0.8469,0.5769,0.3008,-1.1165,-1.4661,2.0165,0.4505,-0.2126,-0.3916,
10.023684,0.8469,0.5769,0.3008,-0.9284,-1.6730,2.1684,0.4505,-0.2126,-0.3916,
10.048187,0.8264,0.5972,0.2945,-0.9284,-1.6730,2.1684,0.4505,-0.2126,-0.3916,
10.064975,0.7963,0.6107,0.2426,-0.9284,-1.6730,2.1684,0.4505,-0.2126,-0.3916,
10.069978,0.7963,0.6107,0.2426,-0.9284,-1.6730,2.1684,-0.2399,-0.4478,-0.2270,
10.090830,0.8156,0.6691,0.1825,-0.9284,-1.6730,2.1684,-0.2399,-0.4478,-0.2270,
10.098420,0.8156,0.6691,0.1825,0.2882,-1.4915,2.4668,-0.2399,-0.4478,-0.2270,
10.114781,0.8548,0.7111,0.1759,0.2882,-1.4915,2.4668,-0.2399,-0.4478,-0.2270,
10.130558,0.8548,0.7111,0.1759,0.2882,-1.4915,2.4668,-0.3228,0.3818,-0.1719,
10.132183,0.8701,0.7495,0.2001,0.2882,-1.4915,2.4668,-0.3228,0.3818,-0.1719,
10.160525,0.8701,0.7495,0.2001,0.4194,-0.1164,1.4970,-0.3228,0.3818,-0.1719,
10.163542,0.8533,0.7565,0.2373,0.4194,-0.1164,1.4970,-0.3228,0.3818,-0.1719,
10.164602,0.8494,0.7241,0.2191,0.4194,-0.1164,1.4970,-0.3228,0.3818,-0.1719,
10.180941,0.8286,0.6893,0.1568,0.4194,-0.1164,1.4970,-0.3228,0.3818,-0.1719,
10.211830,0.8286,0.6893,0.1568,0.4194,-0.1164,1.4970,-0.2505,0.0932,0.2095,
10.215378,0.8267,0.6954,0.0745,0.4194,-0.1164,1.4970,-0.2505,0.0932,0.2095,
10.230530,0.8267,0.6954,0.0745,0.7314,1.0193,1.1576,-0.2505,0.0932,0.2095,
10.232671,0.8746,0.7309,0.0554,0.7314,1.0193,1.1576,-0.2505,0.0932,0.2095,
10.244185,0.8741,0.7534,0.1170,0.7314,1.0193,1.1576,-0.2505,0.0932,0.2095,
10.270415,0.8238,0.7270,0.1901,0.7314,1.0193,1.1576,-0.2505,0.0932,0.2095,
10.272370,0.8238,0.7270,0.1901,0.7314,1.0193,1.1576,-0.9005,0.1105,-0.1766,
10.301183,0.8238,0.7270,0.1901,0.6992,0.6778,-0.3069,-0.9005,0.1105,-0.1766,
10.303722,0.7443,0.6508,0.2196,0.6992,0.6778,-0.3069,-0.9005,0.1105,-0.1766,
10.304583,0.6981,0.5654,0.1886,0.6992,0.6778,-0.3069,-0.9005,0.1105,-0.1766,
10.331458,0.6981,0.5654,0.1886,0.6992,0.6778,-0.3069,-0.1344,1.0535,0.2936,
10.333339,0.6927,0.4938,0.1383,0.6992,0.6778,-0.3069,-0.1344,1.0535,0.2936,
10.371660,0.6927,0.4938,0.1383,-0.0757,0.3501,0.1030,-0.1344,1.0535,0.2936,
10.373639,0.7577,0.4645,0.1133,-0.0757,0.3501,0.1030,-0.1344,1.0535,0.2936,
10.374456,0.8448,0.4963,0.1196,-0.0757,0.3501,0.1030,-0.1344,1.0535,0.2936,
10.381035,0.8465,0.5234,0.0331,-0.0757,0.3501,0.1030,-0.1344,1.0535,0.2936,
10.411488,0.7829,0.5620,-0.0559,-0.0757,0.3501,0.1030,-0.1344,1.0535,0.2936,
10.413484,0.7829,0.5620,-0.0559,-0.0757,0.3501,0.1030,-0.7331,0.1912,0.1208,
10.441665,0.7829,0.5620,-0.0559,0.0617,-1.2333,-1.1967,-0.7331,0.1912,0.1208,
10.443648,0.7284,0.5813,-0.0939,0.0617,-1.2333,-1.1967,-0.7331,0.1912,0.1208,
10.444490,0.7059,0.5943,-0.0712,0.0617,-1.2333,-1.1967,-0.7331,0.1912,0.1208,
10.445057,0.7059,0.5943,-0.0712,-0.1418,-0.9930,-1.0656,-0.7331,0.1912,0.1208,
10.471588,0.7059,0.5943,-0.0712,-0.1418,-0.9930,-1.0656,0.0001,-0.3740,0.1338,
10.473856,0.7284,0.6615,-0.0488,-0.1418,-0.9930,-1.0656,0.0001,-0.3740,0.1338,
10.512278,0.7284,0.6615,-0.0488,-0.3166,-0.3243,-2.5757,0.0001,-0.3740,0.1338,
10.515258,0.7494,0.6986,0.0395,-0.3166,-0.3243,-2.5757,0.0001,-0.3740,0.1338,
10.516260,0.7810,0.6661,0.1319,-0.3166,-0.3243,-2.5757,0.0001,-0.3740,0.1338,
10.532023,0.7920,0.6136,0.1671,-0.3166,-0.3243,-2.5757,0.0001,-0.3740,0.1338,
10.533921,0.7920,0.6136,0.1671,-0.3166,-0.3243,-2.5757,1.7109,0.4716,-0.0573,
10.581491,0.7920,0.6136,0.1671,-0.2176,0.4043,-0.8225,1.7109,0.4716,-0.0573,
10.583805,0.8264,0.5356,0.2422,-0.2176,0.4043,-0.8225,1.7109,0.4716,-0.0573,
10.584442,0.8946,0.4953,0.3797,-0.2176,0.4043,-0.8225,1.7109,0.4716,-0.0573,
10.585108,0.8939,0.4671,0.4386,-0.2176,0.4043,-0.8225,1.7109,0.4716,-0.0573,
10.612544,0.8939,0.4671,0.4386,-0.2176,0.4043,-0.8225,1.1078,-0.2790,-0.0943,
10.616318,0.8435,0.4742,0.2947,-0.2176,0.4043,-0.8225,1.1078,-0.2790,-0.0943,
10.647776,0.8240,0.5041,0.1532,-0.2176,0.4043,-0.8225,1.1078,-0.2790,-0.0943,
10.649884,0.7912,0.5361,0.0654,-0.2176,0.4043,-0.8225,1.1078,-0.2790,-0.0943,
10.653840,0.7912,0.5361,0.0654,0.7846,-1.1978,2.1975,1.1078,-0.2790,-0.0943,
10.671953,0.7785,0.5791,0.0268,0.7846,-1.1978,2.1975,1.1078,-0.2790,-0.0943,
10.673385,0.7785,0.5791,0.0268,0.7846,-1.1978,2.1975,-0.2505,-0.3256,-0.2679,
10.716121,0.8056,0.6141,0.0048,0.7846,-1.1978,2.1975,-0.2505,-0.3256,-0.2679,
10.718626,0.8281,0.6429,-0.0253,0.7846,-1.1978,2.1975,-0.2505,-0.3256,-0.2679,
10.723177,0.8372,0.6343,-0.0287,0.7846,-1.1978,2.1975,-0.2505,-0.3256,-0.2679,
10.724616,0.8372,0.6343,-0.0287,0.4184,-1.3099,0.4799,-0.2505,-0.3256,-0.2679,
10.732421,0.8372,0.6343,-0.0287,0.4184,-1.3099,0.4799,0.3150,-0.3405,-0.6076,
10.743520,0.8679,0.5847,0.1047,0.4184,-1.3099,0.4799,0.3150,-0.3405,-0.6076,
10.780936,0.8733,0.5796,0.2805,0.4184,-1.3099,0.4799,0.3150,-0.3405,-0.6076,
10.792794,0.7929,0.5427,0.3130,0.4184,-1.3099,0.4799,0.3150,-0.3405,-0.6076,
10.794596,0.7929,0.5427,0.3130,0.6860,-0.5023,-0.7911,0.3150,-0.3405,-0.6076,
10.812828,0.6871,0.5671,0.1676,0.6860,-0.5023,-0.7911,0.3150,-0.3405,-0.6076,
10.814741,0.6871,0.5671,0.1676,0.6860,-0.5023,-0.7911,0.2863,-0.5995,-0.6980,
10.848388,0.6863,0.5965,0.0121,0.6860,-0.5023,-0.7911,0.2863,-0.5995,-0.6980,
10.849835,0.7296,0.7402,-0.0624,0.6860,-0.5023,-0.7911,0.2863,-0.5995,-0.6980,
10.862975,0.8139,0.8961,-0.1006,0.6860,-0.5023,-0.7911,0.2863,-0.5995,-0.6980,
10.865187,0.8139,0.8961,-0.1006,0.9776,-1.3481,1.9201,0.2863,-0.5995,-0.6980,
10.865948,0.8139,0.8961,-0.1006,1.5983,-1.9164,1.7656,0.2863,-0.5995,-0.6980,
10.872869,0.8139,0.8961,-0.1006,1.5983,-1.9164,1.7656,-0.6378,-0.3579,-1.5795,
10.914604,0.7389,1.0362,-0.2583,1.5983,-1.9164,1.7656,-0.6378,-0.3579,-1.5795,
10.917006,0.5878,0.9541,-0.2583,1.5983,-1.9164,1.7656,-0.6378,-0.3579,-1.5795,
10.932931,0.5878,0.9541,-0.2583,1.5983,-1.9164,1.7656,-0.1855,-1.1738,-1.4598,
10.934381,0.5878,0.9541,-0.2583,1.4173,-0.9783,-0.5001,-0.1855,-1.1738,-1.4598,
10.935072,0.4982,0.8817,-0.1932,1.4173,-0.9783,-0.5001,-0.1855,-1.1738,-1.4598,
10.980857,0.4216,0.8864,-0.1673,1.4173,-0.9783,-0.5001,-0.1855,-1.1738,-1.4598,
10.983206,0.3778,0.9248,-0.1700,1.4173,-0.9783,-0.5001,-0.1855,-1.1738,-1.4598,
11.003940,0.3778,0.9248,-0.1700,0.5903,0.7949,-1.9871,-0.1855,-1.1738,-1.4598,
11.005916,0.3845,0.8859,-0.0798,0.5903,0.7949,-1.9871,-0.1855,-1.1738,-1.4598,
11.006538,0.3422,0.9903,0.0436,0.5903,0.7949,-1.9871,-0.1855,-1.1738,-1.4598,
11.013201,0.3422,0.9903,0.0436,0.5903,0.7949,-1.9871,0.4706,-0.4226,-1.2074,
11.048195,0.4439,0.9927,0.0952,0.5903,0.7949,-1.9871,0.4706,-0.4226,-1.2074,
11.050551,0.5072,0.9847,0.0573,0.5903,0.7949,-1.9871,0.4706,-0.4226,-1.2074,
11.064428,0.5301,0.8749,0.0495,0.5903,0.7949,-1.9871,0.4706,-0.4226,-1.2074,
11.073548,0.5301,0.8749,0.0495,0.5903,0.7949,-1.9871,-1.1971,-1.0811,-0.9005,
11.074922,0.5301,0.8749,0.0495,-1.0020,0.3402,-0.6624,-1.1971,-1.0811,-0.9005,
11.115906,0.4197,0.9560,-0.0622,-1.0020,0.3402,-0.6624,-1.1971,-1.0811,-0.9005,
11.117516,0.3720,1.0927,-0.2501,-1.0020,0.3402,-0.6624,-1.1971,-1.0811,-0.9005,
11.133765,0.3720,1.0927,-0.2501,-1.0020,0.3402,-0.6624,-0.6250,-0.2103,-0.6525,
11.135364,0.4055,0.9350,-0.1272,-1.0020,0.3402,-0.6624,-0.6250,-0.2103,-0.6525,
11.144334,0.4043,0.9602,0.0368,-1.0020,0.3402,-0.6624,-0.6250,-0.2103,-0.6525,
11.145918,0.4043,0.9602,0.0368,0.6333,0.2283,0.4127,-0.6250,-0.2103,-0.6525,
11.181081,0.4045,0.9443,0.1793,0.6333,0.2283,0.4127,-0.6250,-0.2103,-0.6525,
11.214087,0.4045,0.9443,0.1793,0.6333,0.2283,0.4127,-0.2699,1.1728,-0.1921,
11.216745,0.4045,0.9443,0.1793,-0.1003,0.6915,-1.6803,-0.2699,1.1728,-0.1921,
11.217606,0.3639,0.8837,0.1977,-0.1003,0.6915,-1.6803,-0.2699,1.1728,-0.1921,
11.218251,0.3283,0.8526,0.2082,-0.1003,0.6915,-1.6803,-0.2699,1.1728,-0.1921,
11.241784,0.3285,0.8693,0.1710,-0.1003,0.6915,-1.6803,-0.2699,1.1728,-0.1921,
11.246755,0.3459,0.8612,0.1201,-0.1003,0.6915,-1.6803,-0.2699,1.1728,-0.1921,
11.275361,0.4050,0.8126,0.0568,-0.1003,0.6915,-1.6803,-0.2699,1.1728,-0.1921,
11.276258,0.4050,0.8126,0.0568,-0.1003,0.6915,-1.6803,0.3033,0.9184,-0.1411,
11.285229,0.4363,0.8380,0.0197,-0.1003,0.6915,-1.6803,0.3033,0.9184,-0.1411,
11.285975,0.4363,0.8380,0.0197,-0.2551,-0.4368,1.0606,0.3033,0.9184,-0.1411,
11.286434,0.4363,0.8380,0.0197,-0.1418,-0.4718,1.0200,0.3033,0.9184,-0.1411,
11.313810,0.3855,0.8165,0.1079,-0.1418,-0.4718,1.0200,0.3033,0.9184,-0.1411,
11.334358,0.3855,0.8165,0.1079,-0.1418,-0.4718,1.0200,0.4253,1.2670,0.0913,
11.335966,0.3725,0.9132,0.0750,-0.1418,-0.4718,1.0200,0.4253,1.2670,0.0913,
11.354300,0.3517,1.0245,0.0021,-0.1418,-0.4718,1.0200,0.4253,1.2670,0.0913,
11.355488,0.3517,1.0245,0.0021,0.1160,-0.8809,-0.1554,0.4253,1.2670,0.0913,
11.381864,0.3586,1.1071,0.0207,0.1160,-0.8809,-0.1554,0.4253,1.2670,0.0913,
11.414841,0.2787,1.1327,0.1133,0.1160,-0.8809,-0.1554,0.4253,1.2670,0.0913,
11.417455,0.2138,1.0917,0.1823,0.1160,-0.8809,-0.1554,0.4253,1.2670,0.0913,
11.418107,0.2138,1.0917,0.1823,0.1160,-0.8809,-0.1554,0.5166,1.2608,-0.0344,
11.424866,0.3361,1.0484,0.2763,0.1160,-0.8809,-0.1554,0.5166,1.2608,-0.0344,
11.426967,0.3361,1.0484,0.2763,0.0361,0.0531,-0.3914,0.5166,1.2608,-0.0344,
11.447469,0.4424,1.2064,0.1282,0.0361,0.0531,-0.3914,0.5166,1.2608,-0.0344,
11.476336,0.5050,1.3339,-0.0331,0.0361,0.0531,-0.3914,0.5166,1.2608,-0.0344,
11.478609,0.5050,1.3339,-0.0331,0.0361,0.0531,-0.3914,0.6579,1.6034,0.1574,
11.495339,0.7147,1.3916,-0.1805,0.0361,0.0531,-0.3914,0.6579,1.6034,0.1574,
11.498662,0.7147,1.3916,-0.1805,-0.7558,1.5157,0.7489,0.6579,1.6034,0.1574,
11.515597,0.5834,1.1809,-0.1580,-0.7558,1.5157,0.7489,0.6579,1.6034,0.1574,
11.534789,0.1369,0.9030,-0.0972,-0.7558,1.5157,0.7489,0.6579,1.6034,0.1574,
11.536040,0.1369,0.9030,-0.0972,-0.7558,1.5157,0.7489,0.8230,1.1399,-0.1715,
11.565754,0.1369,0.9030,-0.0972,2.1284,3.3904,-1.2171,0.8230,1.1399,-0.1715,
11.568119,-0.0103,0.7830,0.0202,2.1284,3.3904,-1.2171,0.8230,1.1399,-0.1715,
11.569289,0.0063,0.6126,-0.0593,2.1284,3.3904,-1.2171,0.8230,1.1399,-0.1715,
11.596252,0.0557,0.3711,-0.0429,2.1284,3.3904,-1.2171,0.8230,1.1399,-0.1715,
11.611436,0.2495,0.5029,-0.1387,2.1284,3.3904,-1.2171,0.8230,1.1399,-0.1715,
11.615220,0.2495,0.5029,-0.1387,2.1284,3.3904,-1.2171,0.9977,1.2736,-0.0383,
11.616578,0.2652,0.8407,-0.1402,2.1284,3.3904,-1.2171,0.9977,1.2736,-0.0383,
11.617661,0.2705,0.9115,-0.1431,2.1284,3.3904,-1.2171,0.9977,1.2736,-0.0383,
11.621469,0.2750,0.9927,-0.1485,2.1284,3.3904,-1.2171,0.9977,1.2736,-0.0383,
11.623057,0.3337,1.0098,-0.1856,2.1284,3.3904,-1.2171,0.9977,1.2736,-0.0383,
11.625026,0.3913,1.0098,-0.2277,2.1284,3.3904,-1.2171,0.9977,1.2736,-0.0383,
11.627265,0.4216,1.0157,-0.2404,2.1284,3.3904,-1.2171,0.9977,1.2736,-0.0383,
11.630151,0.4559,1.0000,-0.2262,2.1284,3.3904,-1.2171,0.9977,1.2736,-0.0383,
11.632571,0.4803,0.9594,-0.2121,2.1284,3.3904,-1.2171,0.9977,1.2736,-0.0383,
11.635331,0.4676,0.8944,-0.2062,2.1284,3.3904,-1.2171,0.9977,1.2736,-0.0383,
11.637577,0.4383,0.8187,-0.1983,2.1284,3.3904,-1.2171,0.9977,1.2736,-0.0383,
11.639752,0.3908,0.7581,-0.1739,2.1284,3.3904,-1.2171,0.9977,1.2736,-0.0383,
11.642622,0.3703,0.7277,-0.1666,2.1284,3.3904,-1.2171,0.9977,1.2736,-0.0383,
11.644810,0.3840,0.7189,-0.1905,2.1284,3.3904,-1.2171,0.9977,1.2736,-0.0383,
11.647477,0.4075,0.7380,-0.2223,2.1284,3.3904,-1.2171,0.9977,1.2736,-0.0383,
11.649990,0.4338,0.7776,-0.2663,2.1284,3.3904,-1.2171,0.9977,1.2736,-0.0383,
11.653526,0.4612,0.8250,-0.3020,2.1284,3.3904,-1.2171,0.9977,1.2736,-0.0383,
11.655023,0.4847,0.8665,-0.3235,2.1284,3.3904,-1.2171,0.9977,1.2736,-0.0383,
11.657205,0.5135,0.8983,-0.3372,2.1284,3.3904,-1.2171,0.9977,1.2736,-0.0383,
11.659896,0.5365,0.9277,-0.3352,2.1284,3.3904,-1.2171,0.9977,1.2736,-0.0383,
11.662309,0.5497,0.9433,-0.3235,2.1284,3.3904,-1.2171,0.9977,1.2736,-0.0383,
11.665460,0.5438,0.9472,-0.3162,2.1284,3.3904,-1.2171,0.9977,1.2736,-0.0383,
11.667804,0.5409,0.9516,-0.3138,2.1284,3.3904,-1.2171,0.9977,1.2736,-0.0383,
11.671252,0.5756,0.9604,-0.2649,2.1284,3.3904,-1.2171,0.9977,1.2736,-0.0383,
11.672577,0.6138,0.9961,-0.2267,2.1284,3.3904,-1.2171,0.9977,1.2736,-0.0383,
11.676776,0.6216,1.0358,-0.2355,2.1284,3.3904,-1.2171,0.9977,1.2736,-0.0383,
11.677916,0.6216,1.0358,-0.2355,2.1284,3.3904,-1.2171,1.1939,1.1726,0.1326,
11.678530,0.6025,1.0431,-0.2497,2.1284,3.3904,-1.2171,1.1939,1.1726,0.1326,
11.679155,0.6025,1.0431,-0.2497,-2.2334,-1.3665,-0.9482,1.1939,1.1726,0.1326,
11.679766,0.6025,1.0431,-0.2497,-2.2995,-1.3156,-0.5210,1.1939,1.1726,0.1326,
11.680355,0.5619,1.0543,-0.2428,-2.2995,-1.3156,-0.5210,1.1939,1.1726,0.1326,
11.682338,0.5311,1.0538,-0.2223,-2.2995,-1.3156,-0.5210,1.1939,1.1726,0.1326,
11.684805,0.5194,1.0475,-0.2111,-2.2995,-1.3156,-0.5210,1.1939,1.1726,0.1326,
11.687521,0.5170,1.0397,-0.2150,-2.2995,-1.3156,-0.5210,1.1939,1.1726,0.1326,
11.690265,0.5028,1.0181,-0.2208,-2.2995,-1.3156,-0.5210,1.1939,1.1726,0.1326,
11.692649,0.4915,1.0000,-0.2345,-2.2995,-1.3156,-0.5210,1.1939,1.1726,0.1326,
11.695569,0.4700,0.9976,-0.2492,-2.2995,-1.3156,-0.5210,1.1939,1.1726,0.1326,
11.698564,0.4211,1.0186,-0.2717,-2.2995,-1.3156,-0.5210,1.1939,1.1726,0.1326,
11.699928,0.3703,1.0377,-0.2912,-2.2995,-1.3156,-0.5210,1.1939,1.1726,0.1326,
11.702778,0.3150,1.0499,-0.3029,-2.2995,-1.3156,-0.5210,1.1939,1.1726,0.1326,
11.705355,0.2666,1.0685,-0.3127,-2.2995,-1.3156,-0.5210,1.1939,1.1726,0.1326,
11.737107,0.2666,1.0685,-0.3127,-2.2995,-1.3156,-0.5210,0.1033,-0.0558,-0.6584,
11.773947,0.1596,1.0115,-0.1573,-2.2995,-1.3156,-0.5210,0.1033,-0.0558,-0.6584,
11.796819,0.2002,0.9013,-0.0458,-2.2995,-1.3156,-0.5210,0.1033,-0.0558,-0.6584,
11.799725,0.2002,0.9013,-0.0458,1.1661,-0.6379,-1.9299,0.1033,-0.0558,-0.6584,
11.800834,0.2002,0.9013,-0.0458,1.1661,-0.6379,-1.9299,0.1949,1.1094,-0.3378,
11.801805,0.2002,0.9013,-0.0458,1.5265,-0.7522,-1.9938,0.1949,1.1094,-0.3378,
11.815234,0.2407,0.8732,-0.0197,1.5265,-0.7522,-1.9938,0.1949,1.1094,-0.3378,
11.840409,0.4690,0.9201,-0.0734,1.5265,-0.7522,-1.9938,0.1949,1.1094,-0.3378,
11.866177,0.4690,0.9201,-0.0734,-1.1395,0.0462,-0.9745,0.1949,1.1094,-0.3378,
11.867968,0.6345,0.9837,-0.1854,-1.1395,0.0462,-0.9745,0.1949,1.1094,-0.3378,
11.868870,0.6431,1.0210,-0.2433,-1.1395,0.0462,-0.9745,0.1949,1.1094,-0.3378,
11.877198,0.6431,1.0210,-0.2433,-1.1395,0.0462,-0.9745,0.6623,1.2289,0.4268,
11.908213,0.5497,0.9499,-0.1284,-1.1395,0.0462,-0.9745,0.6623,1.2289,0.4268,
11.910000,0.4084,0.9186,-0.0197,-1.1395,0.0462,-0.9745,0.6623,1.2289,0.4268,
11.936486,0.4084,0.9186,-0.0197,-1.1395,0.0462,-0.9745,0.2647,0.4885,0.0446,
11.938023,0.3615,0.9042,-0.0693,-1.1395,0.0462,-0.9745,0.2647,0.4885,0.0446,
11.938582,0.3615,0.9042,-0.0693,2.1480,0.0213,-0.9579,0.2647,0.4885,0.0446,
11.973562,0.3818,0.9616,-0.0698,2.1480,0.0213,-0.9579,0.2647,0.4885,0.0446,
11.975775,0.3742,0.9976,-0.1065,2.1480,0.0213,-0.9579,0.2647,0.4885,0.0446,
11.997088,0.3742,0.9976,-0.1065,2.1480,0.0213,-0.9579,0.1393,0.1752,0.1812,
11.998991,0.3608,0.9656,-0.1495,2.1480,0.0213,-0.9579,0.1393,0.1752,0.1812,
12.006397,0.4734,0.9250,-0.0783,2.1480,0.0213,-0.9579,0.1393,0.1752,0.1812,
12.007821,0.4734,0.9250,-0.0783,1.0415,-0.2916,-0.1493,0.1393,0.1752,0.1812,
12.008581,0.4734,0.9250,-0.0783,0.9093,-0.2445,-0.1067,0.1393,0.1752,0.1812,
12.040065,0.4764,0.9353,-0.1257,0.9093,-0.2445,-0.1067,0.1393,0.1752,0.1812,
12.064809,0.4055,0.9624,-0.0688,0.9093,-0.2445,-0.1067,0.1393,0.1752,0.1812,
12.078254,0.2850,1.0409,-0.0651,0.9093,-0.2445,-0.1067,0.1393,0.1752,0.1812,
12.079973,0.2850,1.0409,-0.0651,0.9093,-0.2445,-0.1067,-0.1328,0.1149,-0.1780,
12.080769,0.2850,1.0409,-0.0651,0.6943,0.0743,-0.5167,-0.1328,0.1149,-0.1780,
12.108281,0.3329,1.0777,-0.0602,0.6943,0.0743,-0.5167,-0.1328,0.1149,-0.1780,
12.110387,0.4172,1.0866,-0.0715,0.6943,0.0743,-0.5167,-0.1328,0.1149,-0.1780,
12.136913,0.4510,1.0020,-0.1384,0.6943,0.0743,-0.5167,-0.1328,0.1149,-0.1780,
12.138243,0.4510,1.0020,-0.1384,0.6943,0.0743,-0.5167,-0.1196,-0.0683,-0.0389,
12.147783,0.5245,0.8671,-0.1644,0.6943,0.0743,-0.5167,-0.1196,-0.0683,-0.0389,
12.149550,0.5245,0.8671,-0.1644,0.5271,0.3183,-0.3460,-0.1196,-0.0683,-0.0389,
12.173265,0.5754,0.8604,-0.1392,0.5271,0.3183,-0.3460,-0.1196,-0.0683,-0.0389,
12.197900,0.5754,0.8604,-0.1392,0.5271,0.3183,-0.3460,-0.2190,0.0482,0.0053,
12.199776,0.5067,0.8651,-0.1568,0.5271,0.3183,-0.3460,-0.2190,0.0482,0.0053,
12.214288,0.3759,0.8646,-0.1472,0.5271,0.3183,-0.3460,-0.2190,0.0482,0.0053,
12.217112,0.3759,0.8646,-0.1472,1.1471,0.3958,-0.7772,-0.2190,0.0482,0.0053,
12.240437,0.3322,0.8764,-0.0994,1.1471,0.3958,-0.7772,-0.2190,0.0482,0.0053,
12.278268,0.3322,0.8764,-0.0994,1.1471,0.3958,-0.7772,-0.1258,0.4895,-0.2859,
12.280686,0.3109,0.9717,0.0055,1.1471,0.3958,-0.7772,-0.1258,0.4895,-0.2859,
12.281646,0.2671,0.9920,-0.0118,1.1471,0.3958,-0.7772,-0.1258,0.4895,-0.2859,
12.287813,0.2559,0.9612,-0.0385,1.1471,0.3958,-0.7772,-0.1258,0.4895,-0.2859,
12.289149,0.2559,0.9612,-0.0385,1.4099,-0.9812,-1.2145,-0.1258,0.4895,-0.2859,
12.308729,0.2889,0.9226,-0.0446,1.4099,-0.9812,-1.2145,-0.1258,0.4895,-0.2859,
12.337738,0.2789,0.8966,-0.0588,1.4099,-0.9812,-1.2145,-0.1258,0.4895,-0.2859,
12.339248,0.2789,0.8966,-0.0588,1.4099,-0.9812,-1.2145,0.0009,0.3836,-0.1660,
12.358339,0.3087,0.8297,-0.0559,1.4099,-0.9812,-1.2145,0.0009,0.3836,-0.1660,
12.360098,0.3087,0.8297,-0.0559,-0.2145,-0.0311,-0.0927,0.0009,0.3836,-0.1660,
12.373529,0.3439,0.8172,-0.0793,-0.2145,-0.0311,-0.0927,0.0009,0.3836,-0.1660,
12.398384,0.3439,0.8172,-0.0793,-0.2145,-0.0311,-0.0927,0.0290,0.1888,-0.2189,
12.400074,0.3016,0.8688,-0.1272,-0.2145,-0.0311,-0.0927,0.0290,0.1888,-0.2189,
12.414225,0.2302,0.9292,-0.1360,-0.2145,-0.0311,-0.0927,0.0290,0.1888,-0.2189,
12.428669,0.1875,0.9913,-0.1541,-0.2145,-0.0311,-0.0927,0.0290,0.1888,-0.2189,
12.430757,0.1875,0.9913,-0.1541,-0.0012,-0.9376,-0.4753,0.0290,0.1888,-0.2189,
12.431685,0.1875,0.9913,-0.1541,0.1986,-0.9817,-0.4474,0.0290,0.1888,-0.2189,
12.478783,0.1875,0.9913,-0.1541,0.1986,-0.9817,-0.4474,0.1324,0.2963,-0.3786,
12.480841,0.1048,1.0812,-0.1629,0.1986,-0.9817,-0.4474,0.1324,0.2963,-0.3786,
12.482100,-0.0284,1.1310,-0.1182,0.1986,-0.9817,-0.4474,0.1324,0.2963,-0.3786,
12.498841,0.0765,1.0032,-0.3032,0.1986,-0.9817,-0.4474,0.1324,0.2963,-0.3786,
12.500746,0.0765,1.0032,-0.3032,-0.1027,-0.5862,-1.1997,0.1324,0.2963,-0.3786,
12.514713,0.1601,1.0565,0.2724,-0.1027,-0.5862,-1.1997,0.1324,0.2963,-0.3786,
12.538332,0.1601,1.0565,0.2724,-0.1027,-0.5862,-1.1997,-0.5318,0.4588,0.1077,
12.540096,0.2652,1.1296,0.1683,-0.1027,-0.5862,-1.1997,-0.5318,0.4588,0.1077,
12.568633,0.2652,1.1296,0.1683,-2.0282,0.8788,-1.6756,-0.5318,0.4588,0.1077,
12.570261,0.3610,1.0873,0.0451,-2.0282,0.8788,-1.6756,-0.5318,0.4588,0.1077,
12.570827,0.3766,1.0037,0.0292,-2.0282,0.8788,-1.6756,-0.5318,0.4588,0.1077,
12.599395,0.3713,0.9509,0.1065,-2.0282,0.8788,-1.6756,-0.5318,0.4588,0.1077,
12.601602,0.3713,0.9509,0.1065,-2.0282,0.8788,-1.6756,-0.3197,0.3423,0.1422,
12.615189,0.3265,0.9509,0.1478,-2.0282,0.8788,-1.6756,-0.3197,0.3423,0.1422,
12.639352,0.2940,0.9541,0.1297,-2.0282,0.8788,-1.6756,-0.3197,0.3423,0.1422,
12.640925,0.2940,0.9541,0.1297,0.3414,1.0292,0.6246,-0.3197,0.3423,0.1422,
12.680191,0.2940,0.9541,0.1297,0.3414,1.0292,0.6246,-0.0772,0.5137,-0.2173,
12.682571,0.2610,0.9397,0.1062,0.3414,1.0292,0.6246,-0.0772,0.5137,-0.2173,
12.683778,0.2464,0.9174,0.0906,0.3414,1.0292,0.6246,-0.0772,0.5137,-0.2173,
12.707748,0.2334,0.9253,0.0847,0.3414,1.0292,0.6246,-0.0772,0.5137,-0.2173,
12.709897,0.2099,0.9602,0.0952,0.3414,1.0292,0.6246,-0.0772,0.5137,-0.2173,
12.710553,0.2099,0.9602,0.0952,0.5673,-0.2312,0.5326,-0.0772,0.5137,-0.2173,
12.739584,0.2099,0.9602,0.0952,0.5673,-0.2312,0.5326,0.0493,0.5602,-0.1985,
12.741445,0.1672,0.9832,0.1500,0.5673,-0.2312,0.5326,0.0493,0.5602,-0.1985,
12.774358,0.1757,0.9455,0.1622,0.5673,-0.2312,0.5326,0.0493,0.5602,-0.1985,
12.776455,0.1755,0.9226,0.1661,0.5673,-0.2312,0.5326,0.0493,0.5602,-0.1985,
12.779428,0.1755,0.9226,0.1661,-0.1437,-0.4376,0.1598,0.0493,0.5602,-0.1985,
12.800181,0.1755,0.9226,0.1661,-0.1437,-0.4376,0.1598,0.2385,0.4608,-0.0318,
12.802230,0.2150,0.8844,0.1705,-0.1437,-0.4376,0.1598,0.2385,0.4608,-0.0318,
12.814236,0.1911,0.8891,0.1414,-0.1437,-0.4376,0.1598,0.2385,0.4608,-0.0318,
12.840182,0.1329,0.8991,0.1390,-0.1437,-0.4376,0.1598,0.2385,0.4608,-0.0318,
12.850311,0.1217,0.8898,0.1541,-0.1437,-0.4376,0.1598,0.2385,0.4608,-0.0318,
12.851987,0.1217,0.8898,0.1541,-0.6312,-0.3657,0.8608,0.2385,0.4608,-0.0318,
12.853107,0.1217,0.8898,0.1541,-0.5766,-0.3796,0.9812,0.2385,0.4608,-0.0318,
12.880440,0.1848,0.9113,0.1546,-0.5766,-0.3796,0.9812,0.2385,0.4608,-0.0318,
12.882542,0.1848,0.9113,0.1546,-0.5766,-0.3796,0.9812,0.3257,0.2519,-0.0471,
12.908339,0.2271,0.9416,0.1419,-0.5766,-0.3796,0.9812,0.3257,0.2519,-0.0471,
12.914712,0.2828,0.9717,0.1162,-0.5766,-0.3796,0.9812,0.3257,0.2519,-0.0471,
12.921955,0.2828,0.9717,0.1162,-0.7453,-0.8730,0.9748,0.3257,0.2519,-0.0471,
12.939952,0.2828,0.9717,0.1162,-0.7453,-0.8730,0.9748,0.3133,0.1338,0.0838,
12.942180,0.3293,0.9135,0.1223,-0.7453,-0.8730,0.9748,0.3133,0.1338,0.0838,
12.974261,0.3250,0.9553,0.0813,-0.7453,-0.8730,0.9748,0.3133,0.1338,0.0838,
12.976947,0.4028,0.9966,0.0728,-0.7453,-0.8730,0.9748,0.3133,0.1338,0.0838,
12.990765,0.4145,0.9851,0.0718,-0.7453,-0.8730,0.9748,0.3133,0.1338,0.0838,
12.993432,0.4145,0.9851,0.0718,0.0806,-0.3937,1.0691,0.3133,0.1338,0.0838,
13.000318,0.4145,0.9851,0.0718,0.0806,-0.3937,1.0691,0.4193,0.3826,-0.1254,
13.014485,0.3265,0.9873,0.1033,0.0806,-0.3937,1.0691,0.4193,0.3826,-0.1254,
13.040874,0.2564,1.0382,0.1561,0.0806,-0.3937,1.0691,0.4193,0.3826,-0.1254,
13.060748,0.2434,1.0419,0.1925,0.0806,-0.3937,1.0691,0.4193,0.3826,-0.1254,
13.062956,0.2434,1.0419,0.1925,1.3915,-0.1343,0.6482,0.4193,0.3826,-0.1254,
13.081014,0.2632,1.0198,0.2341,1.3915,-0.1343,0.6482,0.4193,0.3826,-0.1254,
13.083247,0.2632,1.0198,0.2341,1.3915,-0.1343,0.6482,0.2925,0.4807,0.0297,
13.107226,0.2874,0.9898,0.2378,1.3915,-0.1343,0.6482,0.2925,0.4807,0.0297,
13.114671,0.3354,0.9891,0.2050,1.3915,-0.1343,0.6482,0.2925,0.4807,0.0297,
13.130728,0.4138,1.2205,0.1280,1.3915,-0.1343,0.6482,0.2925,0.4807,0.0297,
13.132303,0.4138,1.2205,0.1280,0.3342,0.4134,1.4951,0.2925,0.4807,0.0297,
13.140713,0.4138,1.2205,0.1280,0.3342,0.4134,1.4951,0.1738,0.6425,0.2712,
13.173690,0.4180,1.6192,0.0762,0.3342,0.4134,1.4951,0.1738,0.6425,0.2712,
13.175234,0.1640,1.4647,-0.0512,0.3342,0.4134,1.4951,0.1738,0.6425,0.2712,
13.201222,0.1640,1.4647,-0.0512,0.3342,0.4134,1.4951,0.0644,-0.1429,-0.1553,
13.204236,-0.1469,1.0387,-0.2986,0.3342,0.4134,1.4951,0.0644,-0.1429,-0.1553,
13.204982,-0.1469,1.0387,-0.2986,0.7557,0.7963,1.7956,0.0644,-0.1429,-0.1553,
13.213914,-0.0665,0.9431,-0.2116,0.7557,0.7963,1.7956,0.0644,-0.1429,-0.1553,
13.241852,0.0210,0.7930,-0.0255,0.7557,0.7963,1.7956,0.0644,-0.1429,-0.1553,
13.271600,0.0210,0.7930,-0.0255,-1.2833,3.2369,-1.1804,0.0644,-0.1429,-0.1553,
13.273319,0.0911,0.6686,0.0678,-1.2833,3.2369,-1.1804,0.0644,-0.1429,-0.1553,
13.274520,0.2246,0.6048,0.0331,-1.2833,3.2369,-1.1804,0.0644,-0.1429,-0.1553,
13.275382,0.2246,0.6048,0.0331,-1.4719,3.2491,-1.6044,0.0644,-0.1429,-0.1553,
13.281434,0.2246,0.6048,0.0331,-1.4719,3.2491,-1.6044,-0.7636,-0.1363,0.3415,
13.306587,0.4294,0.6426,-0.0639,-1.4719,3.2491,-1.6044,-0.7636,-0.1363,0.3415,
13.314002,0.5995,0.8126,-0.1856,-1.4719,3.2491,-1.6044,-0.7636,-0.1363,0.3415,
13.341602,0.5995,0.8126,-0.1856,-1.4719,3.2491,-1.6044,0.1919,-0.0169,0.2166,
13.343485,0.6360,1.1208,-0.3133,-1.4719,3.2491,-1.6044,0.1919,-0.0169,0.2166,
13.344227,0.6360,1.1208,-0.3133,-1.8068,-2.5113,-0.3848,0.1919,-0.0169,0.2166,
13.374359,0.3742,1.2782,-0.4208,-1.8068,-2.5113,-0.3848,0.1919,-0.0169,0.2166,
13.376645,0.0264,1.2125,-0.2661,-1.8068,-2.5113,-0.3848,0.1919,-0.0169,0.2166,
13.401995,-0.1247,1.1371,0.0444,-1.8068,-2.5113,-0.3848,0.1919,-0.0169,0.2166,
13.404319,-0.1247,1.1371,0.0444,-1.8068,-2.5113,-0.3848,-0.1734,-0.0987,-0.2698,
13.412018,0.0134,0.9781,0.1470,-1.8068,-2.5113,-0.3848,-0.1734,-0.0987,-0.2698,
13.414670,0.0134,0.9781,0.1470,2.8401,-0.6227,-2.4507,-0.1734,-0.0987,-0.2698,
13.441030,0.1752,0.8409,0.0327,2.8401,-0.6227,-2.4507,-0.1734,-0.0987,-0.2698,
13.483452,0.1752,0.8409,0.0327,2.8401,-0.6227,-2.4507,0.0939,-0.4510,0.8338,
13.484633,0.3163,0.7869,-0.1008,2.8401,-0.6227,-2.4507,0.0939,-0.4510,0.8338,
13.485768,0.4441,0.8226,-0.1414,2.8401,-0.6227,-2.4507,0.0939,-0.4510,0.8338,
13.486520,0.4441,0.8226,-0.1414,-2.7267,1.5631,-1.1309,0.0939,-0.4510,0.8338,
13.507934,0.5238,0.8993,-0.1453,-2.7267,1.5631,-1.1309,0.0939,-0.4510,0.8338,
13.515455,0.4656,0.9511,-0.1467,-2.7267,1.5631,-1.1309,0.0939,-0.4510,0.8338,
13.542125,0.4656,0.9511,-0.1467,-2.7267,1.5631,-1.1309,-0.0188,-0.7411,-0.0513,
13.544513,0.3586,0.9492,-0.1340,-2.7267,1.5631,-1.1309,-0.0188,-0.7411,-0.0513,
13.553896,0.2698,0.9592,-0.1016,-2.7267,1.5631,-1.1309,-0.0188,-0.7411,-0.0513,
13.555133,0.2698,0.9592,-0.1016,0.2457,-1.3533,-0.9191,-0.0188,-0.7411,-0.0513,
13.574729,0.2657,0.9721,-0.0502,0.2457,-1.3533,-0.9191,-0.0188,-0.7411,-0.0513,
13.588999,0.2989,0.9648,-0.0219,0.2457,-1.3533,-0.9191,-0.0188,-0.7411,-0.0513,
13.592338,0.3228,0.9419,-0.0038,0.2457,-1.3533,-0.9191,-0.0188,-0.7411,-0.0513,
13.594844,0.3253,0.9453,-0.0028,0.2457,-1.3533,-0.9191,-0.0188,-0.7411,-0.0513,
13.598364,0.3248,0.9414,-0.0116,0.2457,-1.3533,-0.9191,-0.0188,-0.7411,-0.0513,
13.599555,0.3297,0.9375,-0.0092,0.2457,-1.3533,-0.9191,-0.0188,-0.7411,-0.0513,
13.604182,0.3307,0.9326,-0.0087,0.2457,-1.3533,-0.9191,-0.0188,-0.7411,-0.0513,
13.605682,0.3307,0.9326,-0.0087,0.2457,-1.3533,-0.9191,-0.2342,-1.1279,-0.2819,
13.607729,0.3322,0.9223,-0.0126,0.2457,-1.3533,-0.9191,-0.2342,-1.1279,-0.2819,
13.608402,0.3356,0.9184,-0.0136,0.2457,-1.3533,-0.9191,-0.2342,-1.1279,-0.2819,
13.611026,0.3327,0.9184,-0.0170,0.2457,-1.3533,-0.9191,-0.2342,-1.1279,-0.2819,
13.611982,0.3385,0.9096,-0.0219,0.2457,-1.3533,-0.9191,-0.2342,-1.1279,-0.2819,
13.615253,0.3400,0.9052,-0.0233,0.2457,-1.3533,-0.9191,-0.2342,-1.1279,-0.2819,
13.617086,0.3429,0.9018,-0.0262,0.2457,-1.3533,-0.9191,-0.2342,-1.1279,-0.2819,
13.619675,0.3503,0.8964,-0.0267,0.2457,-1.3533,-0.9191,-0.2342,-1.1279,-0.2819,
13.622461,0.3537,0.8910,-0.0292,0.2457,-1.3533,-0.9191,-0.2342,-1.1279,-0.2819,
13.624435,0.3581,0.8861,-0.0336,0.2457,-1.3533,-0.9191,-0.2342,-1.1279,-0.2819,
13.627648,0.3649,0.8832,-0.0394,0.2457,-1.3533,-0.9191,-0.2342,-1.1279,-0.2819,
13.631340,0.3664,0.8788,-0.0444,0.2457,-1.3533,-0.9191,-0.2342,-1.1279,-0.2819,
13.632401,0.3703,0.8769,-0.0483,0.2457,-1.3533,-0.9191,-0.2342,-1.1279,-0.2819,
13.634816,0.3771,0.8769,-0.0527,0.2457,-1.3533,-0.9191,-0.2342,-1.1279,-0.2819,
13.636770,0.3840,0.8749,-0.0600,0.2457,-1.3533,-0.9191,-0.2342,-1.1279,-0.2819,
13.639576,0.3865,0.8759,-0.0664,0.2457,-1.3533,-0.9191,-0.2342,-1.1279,-0.2819,
13.642154,0.3933,0.8822,-0.0703,0.2457,-1.3533,-0.9191,-0.2342,-1.1279,-0.2819,
13.644396,0.3928,0.8798,-0.0790,0.2457,-1.3533,-0.9191,-0.2342,-1.1279,-0.2819,
13.647014,0.3977,0.8803,-0.0883,0.2457,-1.3533,-0.9191,-0.2342,-1.1279,-0.2819,
13.649741,0.4026,0.8842,-0.0972,0.2457,-1.3533,-0.9191,-0.2342,-1.1279,-0.2819,
13.653412,0.4070,0.8925,-0.1069,0.2457,-1.3533,-0.9191,-0.2342,-1.1279,-0.2819,
13.654527,0.4075,0.8891,-0.1182,0.2457,-1.3533,-0.9191,-0.2342,-1.1279,-0.2819,
13.655240,0.4075,0.8891,-0.1182,0.9055,-0.2208,-1.2867,-0.2342,-1.1279,-0.2819,
13.655800,0.4075,0.8891,-0.1182,0.9486,-0.2346,-1.2229,-0.2342,-1.1279,-0.2819,
13.656930,0.4133,0.8944,-0.1294,0.9486,-0.2346,-1.2229,-0.2342,-1.1279,-0.2819,
13.659680,0.4138,0.8979,-0.1362,0.9486,-0.2346,-1.2229,-0.2342,-1.1279,-0.2819,
13.662397,0.4162,0.8974,-0.1441,0.9486,-0.2346,-1.2229,-0.2342,-1.1279,-0.2819,
13.663485,0.4162,0.8974,-0.1441,0.9486,-0.2346,-1.2229,-0.4032,-1.4240,0.0057,
13.665708,0.4177,0.8974,-0.1554,0.9486,-0.2346,-1.2229,-0.4032,-1.4240,0.0057,
13.667183,0.4187,0.9008,-0.1656,0.9486,-0.2346,-1.2229,-0.4032,-1.4240,0.0057,
13.669533,0.4236,0.9032,-0.1695,0.9486,-0.2346,-1.2229,-0.4032,-1.4240,0.0057,
13.671969,0.4294,0.9101,-0.1773,0.9486,-0.2346,-1.2229,-0.4032,-1.4240,0.0057,
13.675802,0.4314,0.9125,-0.1866,0.9486,-0.2346,-1.2229,-0.4032,-1.4240,0.0057,
13.677654,0.4402,0.9169,-0.1890,0.9486,-0.2346,-1.2229,-0.4032,-1.4240,0.0057,
13.679778,0.4393,0.9154,-0.1905,0.9486,-0.2346,-1.2229,-0.4032,-1.4240,0.0057,
13.682668,0.4480,0.9203,-0.1934,0.9486,-0.2346,-1.2229,-0.4032,-1.4240,0.0057,
13.684408,0.4485,0.9233,-0.1900,0.9486,-0.2346,-1.2229,-0.4032,-1.4240,0.0057,
13.687221,0.4544,0.9272,-0.1856,0.9486,-0.2346,-1.2229,-0.4032,-1.4240,0.0057,
13.689609,0.4617,0.9282,-0.1817,0.9486,-0.2346,-1.2229,-0.4032,-1.4240,0.0057,
13.692128,0.4637,0.9341,-0.1724,0.9486,-0.2346,-1.2229,-0.4032,-1.4240,0.0057,
13.694975,0.4690,0.9394,-0.1680,0.9486,-0.2346,-1.2229,-0.4032,-1.4240,0.0057,
13.697974,0.4744,0.9424,-0.1597,0.9486,-0.2346,-1.2229,-0.4032,-1.4240,0.0057,
13.700305,0.4798,0.9477,-0.1505,0.9486,-0.2346,-1.2229,-0.4032,-1.4240,0.0057,
13.702780,0.4808,0.9536,-0.1402,0.9486,-0.2346,-1.2229,-0.4032,-1.4240,0.0057,
13.704798,0.4871,0.9599,-0.1328,0.9486,-0.2346,-1.2229,-0.4032,-1.4240,0.0057,
13.708132,0.4891,0.9648,-0.1250,0.9486,-0.2346,-1.2229,-0.4032,-1.4240,0.0057,
13.710639,0.4891,0.9721,-0.1196,0.9486,-0.2346,-1.2229,-0.4032,-1.4240,0.0057,
13.712507,0.4921,0.9800,-0.1133,0.9486,-0.2346,-1.2229,-0.4032,-1.4240,0.0057,
13.718209,0.4945,0.9873,-0.0996,0.9486,-0.2346,-1.2229,-0.4032,-1.4240,0.0057,
13.725986,0.4945,0.9873,-0.0996,0.6664,-0.6710,-0.3686,-0.4032,-1.4240,0.0057,
13.743074,0.4945,0.9873,-0.0996,0.6664,-0.6710,-0.3686,-0.5929,-1.3711,-0.2162,
13.784519,0.5121,0.9864,-0.0874,0.6664,-0.6710,-0.3686,-0.5929,-1.3711,-0.2162,
13.804382,0.5121,0.9864,-0.0874,0.6664,-0.6710,-0.3686,-0.4702,-1.2837,-0.2092,
13.805919,0.5121,0.9864,-0.0874,1.7565,-0.3710,-1.5347,-0.4702,-1.2837,-0.2092,
13.806746,0.4390,1.0599,-0.1187,1.7565,-0.3710,-1.5347,-0.4702,-1.2837,-0.2092,
13.813786,0.1740,1.3168,-0.0895,1.7565,-0.3710,-1.5347,-0.4702,-1.2837,-0.2092,
13.849313,-0.0773,1.4373,-0.0534,1.7565,-0.3710,-1.5347,-0.4702,-1.2837,-0.2092,
13.863649,-0.0423,1.1558,0.0290,1.7565,-0.3710,-1.5347,-0.4702,-1.2837,-0.2092,
13.865915,-0.0423,1.1558,0.0290,1.7565,-0.3710,-1.5347,-0.3567,-1.4208,-0.1650,
13.873452,0.1784,0.8285,-0.0331,1.7565,-0.3710,-1.5347,-0.3567,-1.4208,-0.1650,
13.874814,0.1784,0.8285,-0.0331,1.7708,0.6752,-0.9808,-0.3567,-1.4208,-0.1650,
13.875852,0.1784,0.8285,-0.0331,1.8217,0.6420,-0.9461,-0.3567,-1.4208,-0.1650,
13.915354,0.2931,0.6918,-0.1397,1.8217,0.6420,-0.9461,-0.3567,-1.4208,-0.1650,
13.917362,0.2710,0.7089,-0.0999,1.8217,0.6420,-0.9461,-0.3567,-1.4208,-0.1650,
13.944172,0.1593,0.7915,0.0436,1.8217,0.6420,-0.9461,-0.3567,-1.4208,-0.1650,
13.946135,0.1593,0.7915,0.0436,1.8217,0.6420,-0.9461,-0.3503,-1.4164,-0.0390,
13.947822,0.1593,0.7915,0.0436,-2.2574,1.8646,-0.3085,-0.3503,-1.4164,-0.0390,
13.982450,0.0295,0.9196,0.2145,-2.2574,1.8646,-0.3085,-0.3503,-1.4164,-0.0390,
13.984474,-0.0743,1.0599,0.2240,-2.2574,1.8646,-0.3085,-0.3503,-1.4164,-0.0390,
14.004218,-0.0743,1.0599,0.2240,-2.2574,1.8646,-0.3085,-0.3675,-1.6426,-0.2786,
14.006129,-0.0741,1.1435,0.0930,-2.2574,1.8646,-0.3085,-0.3675,-1.6426,-0.2786,
14.013787,0.0071,1.1171,0.0214,-2.2574,1.8646,-0.3085,-0.3675,-1.6426,-0.2786,
14.016305,0.0071,1.1171,0.0214,-0.2347,-2.3057,-0.3193,-0.3675,-1.6426,-0.2786,
14.049595,0.2121,1.0699,0.0331,-0.2347,-2.3057,-0.3193,-0.3675,-1.6426,-0.2786,
14.064758,0.3571,1.0541,0.0419,-0.2347,-2.3057,-0.3193,-0.3675,-1.6426,-0.2786,
14.066152,0.3571,1.0541,0.0419,-0.2347,-2.3057,-0.3193,-0.3293,-1.3735,0.0429,
14.084505,0.3420,0.9687,0.0541,-0.2347,-2.3057,-0.3193,-0.3293,-1.3735,0.0429,
14.086224,0.3420,0.9687,0.0541,-2.7403,0.9541,1.2815,-0.3293,-1.3735,0.0429,
14.115452,0.2266,0.8827,0.0950,-2.7403,0.9541,1.2815,-0.3293,-1.3735,0.0429,
14.118440,0.1342,0.8653,0.1417,-2.7403,0.9541,1.2815,-0.3293,-1.3735,0.0429,
14.144599,0.0989,0.9035,0.1339,-2.7403,0.9541,1.2815,-0.3293,-1.3735,0.0429,
14.146388,0.0989,0.9035,0.1339,-2.7403,0.9541,1.2815,-0.4330,-1.0759,-0.2964,
14.154194,0.1100,0.9519,0.1113,-2.7403,0.9541,1.2815,-0.4330,-1.0759,-0.2964,
14.155765,0.1100,0.9519,0.1113,0.6750,0.1982,0.3869,-0.4330,-1.0759,-0.2964,
14.182410,0.1415,0.9856,0.0933,0.6750,0.1982,0.3869,-0.4330,-1.0759,-0.2964,
14.204568,0.1415,0.9856,0.0933,0.6750,0.1982,0.3869,-0.2152,-0.7162,-0.1469,
14.205989,0.1371,0.9817,0.0872,0.6750,0.1982,0.3869,-0.2152,-0.7162,-0.1469,
14.226537,0.1308,0.9502,0.0681,0.6750,0.1982,0.3869,-0.2152,-0.7162,-0.1469,
14.229280,0.1308,0.9502,0.0681,-0.8336,-0.8958,1.0287,-0.2152,-0.7162,-0.1469,
14.241640,0.1574,0.9538,0.0578,-0.8336,-0.8958,1.0287,-0.2152,-0.7162,-0.1469,
14.264395,0.1833,0.9893,0.0317,-0.8336,-0.8958,1.0287,-0.2152,-0.7162,-0.1469,
14.265876,0.1833,0.9893,0.0317,-0.8336,-0.8958,1.0287,-0.0655,-0.7273,0.0226,
14.296955,0.1833,0.9893,0.0317,-0.6837,-0.2388,0.5847,-0.0655,-0.7273,0.0226,
14.299527,0.1838,0.9869,-0.0282,-0.6837,-0.2388,0.5847,-0.0655,-0.7273,0.0226,
14.300223,0.1743,0.9939,-0.0341,-0.6837,-0.2388,0.5847,-0.0655,-0.7273,0.0226,
14.300857,0.1743,0.9939,-0.0341,-0.6967,-0.2307,0.6394,-0.0655,-0.7273,0.0226,
14.315505,0.1731,1.0142,0.0148,-0.6967,-0.2307,0.6394,-0.0655,-0.7273,0.0226,
14.345204,0.1777,1.0353,0.0292,-0.6967,-0.2307,0.6394,-0.0655,-0.7273,0.0226,
14.347666,0.1777,1.0353,0.0292,-0.6967,-0.2307,0.6394,-0.0423,-0.5857,-0.0623,
14.365746,0.1789,1.0482,0.0148,-0.6967,-0.2307,0.6394,-0.0423,-0.5857,-0.0623,
14.367876,0.1789,1.0482,0.0148,-0.2405,-0.0736,-0.1213,-0.0423,-0.5857,-0.0623,
14.382427,0.1687,1.0414,0.0202,-0.2405,-0.0736,-0.1213,-0.0423,-0.5857,-0.0623,
14.405433,0.1687,1.0414,0.0202,-0.2405,-0.0736,-0.1213,-0.0949,-0.2949,-0.1566,
14.407369,0.1549,1.0291,0.0400,-0.2405,-0.0736,-0.1213,-0.0949,-0.2949,-0.1566,
14.435752,0.1549,1.0291,0.0400,-0.1722,0.3770,0.0410,-0.0949,-0.2949,-0.1566,
14.437644,0.1583,1.0203,0.0480,-0.1722,0.3770,0.0410,-0.0949,-0.2949,-0.1566,
14.438275,0.1535,1.0132,0.0595,-0.1722,0.3770,0.0410,-0.0949,-0.2949,-0.1566,
14.465571,0.1535,1.0132,0.0595,-0.1722,0.3770,0.0410,-0.1461,-0.2426,-0.0711,
14.467900,0.1630,0.9954,0.0519,-0.1722,0.3770,0.0410,-0.1461,-0.2426,-0.0711,
14.506056,0.1630,0.9954,0.0519,-0.3208,0.2591,0.2382,-0.1461,-0.2426,-0.0711,
14.508427,0.1709,0.9776,0.0388,-0.3208,0.2591,0.2382,-0.1461,-0.2426,-0.0711,
14.509163,0.1814,0.9788,0.0424,-0.3208,0.2591,0.2382,-0.1461,-0.2426,-0.0711,
14.515788,0.1943,0.9891,0.0427,-0.3208,0.2591,0.2382,-0.1461,-0.2426,-0.0711,
14.545717,0.1943,0.9891,0.0427,-0.3208,0.2591,0.2382,-0.1257,-0.1722,-0.0185,
14.547947,0.1926,0.9891,0.0363,-0.3208,0.2591,0.2382,-0.1257,-0.1722,-0.0185,
14.576199,0.1926,0.9891,0.0363,-0.1353,-0.1194,0.1673,-0.1257,-0.1722,-0.0185,
14.578195,0.1894,0.9803,0.0451,-0.1353,-0.1194,0.1673,-0.1257,-0.1722,-0.0185,
14.578848,0.2006,0.9704,0.0505,-0.1353,-0.1194,0.1673,-0.1257,-0.1722,-0.0185,
14.606112,0.2006,0.9704,0.0505,-0.1353,-0.1194,0.1673,-0.0085,-0.0533,-0.0519,
14.607943,0.2050,0.9665,0.0363,-0.1353,-0.1194,0.1673,-0.0085,-0.0533,-0.0519,
14.646599,0.2050,0.9665,0.0363,0.0829,-0.1519,0.1439,-0.0085,-0.0533,-0.0519,
14.649105,0.1809,0.9793,0.0123,0.0829,-0.1519,0.1439,-0.0085,-0.0533,-0.0519,
14.649948,0.1449,1.0042,-0.0001,0.0829,-0.1519,0.1439,-0.0085,-0.0533,-0.0519,
14.666067,0.1449,1.0042,-0.0001,0.0829,-0.1519,0.1439,0.0770,0.0485,-0.0960,
14.667882,0.1224,1.0232,0.0101,0.0829,-0.1519,0.1439,0.0770,0.0485,-0.0960,
14.714823,0.1181,1.0230,0.0153,0.0829,-0.1519,0.1439,0.0770,0.0485,-0.0960,
14.717541,0.1217,1.0074,0.0212,0.0829,-0.1519,0.1439,0.0770,0.0485,-0.0960,
14.718436,0.1337,0.9869,0.0295,0.0829,-0.1519,0.1439,0.0770,0.0485,-0.0960,
14.719586,0.1337,0.9869,0.0295,-0.1020,-0.0918,-0.0858,0.0770,0.0485,-0.0960,
14.720387,0.1337,0.9869,0.0295,-0.0561,-0.0984,-0.0733,0.0770,0.0485,-0.0960,
14.742210,0.1520,0.9844,0.0251,-0.0561,-0.0984,-0.0733,0.0770,0.0485,-0.0960,
14.746481,0.1520,0.9844,0.0251,-0.0561,-0.0984,-0.0733,0.0340,0.0796,-0.0579,
14.782465,0.1561,0.9988,0.0087,-0.0561,-0.0984,-0.0733,0.0340,0.0796,-0.0579,
14.784294,0.1452,1.0020,0.0092,-0.0561,-0.0984,-0.0733,0.0340,0.0796,-0.0579,
14.787823,0.1452,1.0020,0.0092,-0.4258,0.0838,0.0106,0.0340,0.0796,-0.0579,
14.807181,0.1388,0.9952,0.0165,-0.4258,0.0838,0.0106,0.0340,0.0796,-0.0579,
14.809034,0.1388,0.9952,0.0165,-0.4258,0.0838,0.0106,0.0526,-0.0316,-0.0567,
14.849666,0.1381,0.9974,0.0153,-0.4258,0.0838,0.0106,0.0526,-0.0316,-0.0567,
14.851830,0.1373,1.0039,0.0258,-0.4258,0.0838,0.0106,0.0526,-0.0316,-0.0567,
14.856768,0.1491,1.0083,0.0096,-0.4258,0.0838,0.0106,0.0526,-0.0316,-0.0567,
14.857901,0.1491,1.0083,0.0096,-0.1260,-0.0486,-0.0168,0.0526,-0.0316,-0.0567,
14.866545,0.1491,1.0083,0.0096,-0.1260,-0.0486,-0.0168,0.0274,-0.0760,-0.0357,
14.914361,0.1596,1.0066,-0.0023,-0.1260,-0.0486,-0.0168,0.0274,-0.0760,-0.0357,
14.916526,0.1618,0.9942,0.0143,-0.1260,-0.0486,-0.0168,0.0274,-0.0760,-0.0357,
14.926789,0.1564,0.9851,0.0263,-0.1260,-0.0486,-0.0168,0.0274,-0.0760,-0.0357,
14.928536,0.1564,0.9851,0.0263,-0.1776,0.0139,0.0221,0.0274,-0.0760,-0.0357,
14.947451,0.1559,0.9927,0.0133,-0.1776,0.0139,0.0221,0.0274,-0.0760,-0.0357,
14.949269,0.1559,0.9927,0.0133,-0.1776,0.0139,0.0221,0.0048,-0.1222,0.0152,
14.982947,0.1574,1.0015,0.0018,-0.1776,0.0139,0.0221,0.0048,-0.1222,0.0152,
14.984743,0.1591,1.0044,0.0006,-0.1776,0.0139,0.0221,0.0048,-0.1222,0.0152,
14.999146,0.1627,1.0030,0.0057,-0.1776,0.0139,0.0221,0.0048,-0.1222,0.0152,
15.000927,0.1627,1.0030,0.0057,-0.0152,-0.0493,0.0066,0.0048,-0.1222,0.0152,
15.006728,0.1627,1.0030,0.0057,-0.0152,-0.0493,0.0066,-0.0039,-0.1210,0.0164,
15.049263,0.1637,0.9993,0.0035,-0.0152,-0.0493,0.0066,-0.0039,-0.1210,0.0164,
15.051408,0.1579,0.9978,0.0031,-0.0152,-0.0493,0.0066,-0.0039,-0.1210,0.0164,
15.064279,0.1525,0.9978,0.0016,-0.0152,-0.0493,0.0066,-0.0039,-0.1210,0.0164,
15.067000,0.1525,0.9978,0.0016,-0.0152,-0.0493,0.0066,0.0087,-0.1378,0.0091,
15.067981,0.1525,0.9978,0.0016,-0.0189,0.0196,-0.0805,0.0087,-0.1378,0.0091,
15.115646,0.1488,0.9983,-0.0023,-0.0189,0.0196,-0.0805,0.0087,-0.1378,0.0091,
15.118504,0.1535,1.0079,-0.0116,-0.0189,0.0196,-0.0805,0.0087,-0.1378,0.0091,
15.138465,0.1576,1.0169,-0.0270,-0.0189,0.0196,-0.0805,0.0087,-0.1378,0.0091,
15.140846,0.1398,1.0213,-0.0258,-0.0189,0.0196,-0.0805,0.0087,-0.1378,0.0091,
15.141589,0.1398,1.0213,-0.0258,-0.0435,-0.0137,-0.0630,0.0087,-0.1378,0.0091,
15.142208,0.1398,1.0213,-0.0258,-0.0245,-0.0146,-0.0306,0.0087,-0.1378,0.0091,
15.147986,0.1398,1.0213,-0.0258,-0.0245,-0.0146,-0.0306,0.0164,-0.1935,-0.0276,
15.182738,0.1159,1.0122,-0.0157,-0.0245,-0.0146,-0.0306,0.0164,-0.1935,-0.0276,
15.185238,0.0992,1.0110,-0.0104,-0.0245,-0.0146,-0.0306,0.0164,-0.1935,-0.0276,
15.208722,0.0870,1.0259,-0.0128,-0.0245,-0.0146,-0.0306,0.0164,-0.1935,-0.0276,
15.210525,0.0870,1.0259,-0.0128,-0.0245,-0.0146,-0.0306,-0.0700,-0.3065,-0.0178,
15.211399,0.0870,1.0259,-0.0128,-0.0666,0.1154,-0.2181,-0.0700,-0.3065,-0.0178,
15.241958,0.0767,1.0365,-0.0199,-0.0666,0.1154,-0.2181,-0.0700,-0.3065,-0.0178,
15.243687,0.0775,1.0375,-0.0231,-0.0666,0.1154,-0.2181,-0.0700,-0.3065,-0.0178,
15.268947,0.0775,1.0375,-0.0231,-0.0666,0.1154,-0.2181,-0.1916,-0.5200,0.0344,
15.271429,0.0989,1.0267,-0.0275,-0.0666,0.1154,-0.2181,-0.1916,-0.5200,0.0344,
15.278374,0.1021,1.0154,-0.0177,-0.0666,0.1154,-0.2181,-0.1916,-0.5200,0.0344,
15.282293,0.1021,1.0154,-0.0177,-0.5345,0.1574,-0.2007,-0.1916,-0.5200,0.0344,
15.314492,0.1141,0.9888,0.0077,-0.5345,0.1574,-0.2007,-0.1916,-0.5200,0.0344,
15.349003,0.1141,0.9888,0.0077,-0.5345,0.1574,-0.2007,-0.2581,-0.6321,0.0242,
15.350562,0.1141,0.9888,0.0077,-0.5626,0.2240,-0.3361,-0.2581,-0.6321,0.0242,
15.351251,0.1183,0.9629,0.0336,-0.5626,0.2240,-0.3361,-0.2581,-0.6321,0.0242,
15.351877,0.1290,0.9541,0.0666,-0.5626,0.2240,-0.3361,-0.2581,-0.6321,0.0242,
15.382124,0.1366,0.9560,0.0764,-0.5626,0.2240,-0.3361,-0.2581,-0.6321,0.0242,
15.383866,0.1456,0.9511,0.0957,-0.5626,0.2240,-0.3361,-0.2581,-0.6321,0.0242,
15.409429,0.1364,0.9575,0.1001,-0.5626,0.2240,-0.3361,-0.2581,-0.6321,0.0242,
15.411553,0.1364,0.9575,0.1001,-0.5626,0.2240,-0.3361,-0.2280,-0.7562,-0.0570,
15.420559,0.1454,0.9783,0.0994,-0.5626,0.2240,-0.3361,-0.2280,-0.7562,-0.0570,
15.421767,0.1454,0.9783,0.0994,-0.2101,-0.3387,0.1842,-0.2280,-0.7562,-0.0570,
15.449489,0.1474,0.9881,0.1165,-0.2101,-0.3387,0.1842,-0.2280,-0.7562,-0.0570,
15.469297,0.1581,0.9768,0.1194,-0.2101,-0.3387,0.1842,-0.2280,-0.7562,-0.0570,
15.471670,0.1581,0.9768,0.1194,-0.2101,-0.3387,0.1842,-0.1346,-0.8844,-0.0843,
15.489419,0.1679,0.9477,0.1021,-0.2101,-0.3387,0.1842,-0.1346,-0.8844,-0.0843,
15.491615,0.1679,0.9477,0.1021,0.0212,-0.3829,0.6573,-0.1346,-0.8844,-0.0843,
15.514609,0.1745,0.9409,0.0921,0.0212,-0.3829,0.6573,-0.1346,-0.8844,-0.0843,
15.529186,0.1745,0.9409,0.0921,0.0212,-0.3829,0.6573,0.0764,-0.9811,0.0111,
15.530656,0.1557,0.9394,0.1001,0.0212,-0.3829,0.6573,0.0764,-0.9811,0.0111,
15.560062,0.1557,0.9394,0.1001,0.2092,-0.3314,0.8231,0.0764,-0.9811,0.0111,
15.564445,0.1557,0.9394,0.1001,0.1947,-0.3272,0.9816,0.0764,-0.9811,0.0111,
15.565356,0.1410,0.9609,0.0950,0.1947,-0.3272,0.9816,0.0764,-0.9811,0.0111,
15.566002,0.1161,0.9878,0.0869,0.1947,-0.3272,0.9816,0.0764,-0.9811,0.0111,
15.588889,0.0882,0.9839,0.0656,0.1947,-0.3272,0.9816,0.0764,-0.9811,0.0111,
15.590382,0.0833,0.9624,0.0847,0.1947,-0.3272,0.9816,0.0764,-0.9811,0.0111,
15.591027,0.0882,0.9658,0.0896,0.1947,-0.3272,0.9816,0.0764,-0.9811,0.0111,
15.593780,0.0838,0.9643,0.0867,0.1947,-0.3272,0.9816,0.0764,-0.9811,0.0111,
15.598154,0.0779,0.9731,0.0891,0.1947,-0.3272,0.9816,0.0764,-0.9811,0.0111,
15.599303,0.0706,0.9721,0.0881,0.1947,-0.3272,0.9816,0.0764,-0.9811,0.0111,
15.601494,0.0687,0.9697,0.0867,0.1947,-0.3272,0.9816,0.0764,-0.9811,0.0111,
15.603951,0.0692,0.9731,0.0886,0.1947,-0.3272,0.9816,0.0764,-0.9811,0.0111,
15.606171,0.0613,0.9766,0.0911,0.1947,-0.3272,0.9816,0.0764,-0.9811,0.0111,
15.609398,0.0565,0.9741,0.0872,0.1947,-0.3272,0.9816,0.0764,-0.9811,0.0111,
15.610570,0.0565,0.9741,0.0872,0.1947,-0.3272,0.9816,0.2316,-0.9386,-0.0196,
15.611399,0.0544,0.9751,0.0852,0.1947,-0.3272,0.9816,0.2316,-0.9386,-0.0196,
15.614532,0.0466,0.9790,0.0828,0.1947,-0.3272,0.9816,0.2316,-0.9386,-0.0196,
15.617264,0.0427,0.9805,0.0833,0.1947,-0.3272,0.9816,0.2316,-0.9386,-0.0196,
15.620051,0.0447,0.9805,0.0833,0.1947,-0.3272,0.9816,0.2316,-0.9386,-0.0196,
15.621307,0.0413,0.9844,0.0789,0.1947,-0.3272,0.9816,0.2316,-0.9386,-0.0196,
15.624003,0.0393,0.9829,0.0769,0.1947,-0.3272,0.9816,0.2316,-0.9386,-0.0196,
15.626171,0.0339,0.9825,0.0789,0.1947,-0.3272,0.9816,0.2316,-0.9386,-0.0196,
15.630693,0.0315,0.9864,0.0784,0.1947,-0.3272,0.9816,0.2316,-0.9386,-0.0196,
15.631605,0.0325,0.9898,0.0764,0.1947,-0.3272,0.9816,0.2316,-0.9386,-0.0196,
15.633985,0.0266,0.9883,0.0720,0.1947,-0.3272,0.9816,0.2316,-0.9386,-0.0196,
15.636696,0.0315,0.9810,0.0784,0.1947,-0.3272,0.9816,0.2316,-0.9386,-0.0196,
15.639250,0.0320,0.9893,0.0715,0.1947,-0.3272,0.9816,0.2316,-0.9386,-0.0196,
15.642149,0.0251,0.9917,0.0735,0.1947,-0.3272,0.9816,0.2316,-0.9386,-0.0196,
15.643894,0.0193,0.9922,0.0701,0.1947,-0.3272,0.9816,0.2316,-0.9386,-0.0196,
15.647467,0.0159,0.9961,0.0706,0.1947,-0.3272,0.9816,0.2316,-0.9386,-0.0196,
15.650598,0.0110,0.9971,0.0720,0.1947,-0.3272,0.9816,0.2316,-0.9386,-0.0196,
15.652020,0.0100,0.9996,0.0720,0.1947,-0.3272,0.9816,0.2316,-0.9386,-0.0196,
15.652696,0.0100,0.9996,0.0720,0.0141,-0.3903,1.0171,0.2316,-0.9386,-0.0196,
15.655655,0.0105,0.9996,0.0711,0.0141,-0.3903,1.0171,0.2316,-0.9386,-0.0196,
15.657020,0.0110,1.0010,0.0730,0.0141,-0.3903,1.0171,0.2316,-0.9386,-0.0196,
15.659528,0.0076,1.0010,0.0715,0.0141,-0.3903,1.0171,0.2316,-0.9386,-0.0196,
15.661773,0.0095,1.0020,0.0701,0.0141,-0.3903,1.0171,0.2316,-0.9386,-0.0196,
15.664470,0.0144,1.0015,0.0696,0.0141,-0.3903,1.0171,0.2316,-0.9386,-0.0196,
15.666554,0.0120,0.9991,0.0676,0.0141,-0.3903,1.0171,0.2316,-0.9386,-0.0196,
15.669451,0.0120,0.9991,0.0676,0.0141,-0.3903,1.0171,0.1860,-0.9527,0.0750,
15.671000,0.0173,1.0000,0.0735,0.0141,-0.3903,1.0171,0.1860,-0.9527,0.0750,
15.671888,0.0251,0.9991,0.0637,0.0141,-0.3903,1.0171,0.1860,-0.9527,0.0750,
15.675571,0.0237,1.0010,0.0622,0.0141,-0.3903,1.0171,0.1860,-0.9527,0.0750,
15.676631,0.0310,0.9976,0.0671,0.0141,-0.3903,1.0171,0.1860,-0.9527,0.0750,
15.679370,0.0369,0.9956,0.0685,0.0141,-0.3903,1.0171,0.1860,-0.9527,0.0750,
15.682195,0.0354,0.9961,0.0622,0.0141,-0.3903,1.0171,0.1860,-0.9527,0.0750,
15.684020,0.0325,0.9917,0.0627,0.0141,-0.3903,1.0171,0.1860,-0.9527,0.0750,
15.686403,0.0374,0.9956,0.0666,0.0141,-0.3903,1.0171,0.1860,-0.9527,0.0750,
