
time,gFx,gFy,gFz,ax,ay,az,wx,wy,wz,
0.098079,-0.0887,0.6230,0.7771,0.0000,0.0000,0.0000,0.0000,0.0000,0.0000,
0.163153,-0.0607,0.6152,0.7472,0.0000,0.0000,0.0000,0.0000,0.0000,0.0000,
0.233242,-0.0976,0.6047,0.8117,0.0000,0.0000,0.0000,0.0000,0.0000,0.0000,
0.236072,-0.0976,0.6047,0.8117,0.0000,0.0000,0.0000,0.0000,0.0000,0.0000,
0.237757,-0.0976,0.6047,0.8117,0.0000,0.0000,0.0000,0.0000,0.0000,0.0000,
0.243798,-0.0976,0.6047,0.8117,0.0000,0.0000,0.0000,-0.2320,-0.4776,-0.2676,
0.282511,-0.0976,0.6047,0.8117,0.0000,0.0000,0.0000,0.1595,-0.6234,-0.0394,
0.303383,-0.0165,0.5833,0.8328,0.0000,0.0000,0.0000,0.1595,-0.6234,-0.0394,
0.305264,-0.0165,0.5833,0.8328,-0.2351,-0.0366,0.3002,0.1595,-0.6234,-0.0394,
0.306510,-0.0165,0.5833,0.8328,-0.2143,-0.0491,0.1663,0.1595,-0.6234,-0.0394,
0.363131,-0.0165,0.5833,0.8328,-0.2143,-0.0491,0.1663,0.0670,-0.6678,0.0511,
0.374073,0.0830,0.7019,0.8566,-0.2143,-0.0491,0.1663,0.0670,-0.6678,0.0511,
0.375304,0.0830,0.7019,0.8566,0.2872,-0.2248,0.2804,0.0670,-0.6678,0.0511,
0.376062,0.0830,0.7019,0.8566,-0.0036,-0.1288,0.1637,0.0670,-0.6678,0.0511,
0.442961,0.0830,0.7019,0.8566,-0.0036,-0.1288,0.1637,-0.2262,-0.8017,-0.3361,
0.444370,0.2033,0.9444,1.0601,-0.0036,-0.1288,0.1637,-0.2262,-0.8017,-0.3361,
0.445817,0.2033,0.9444,1.0601,0.5479,0.8424,0.2481,-0.2262,-0.8017,-0.3361,
0.483350,0.2033,0.9444,1.0601,0.5479,0.8424,0.2481,0.4443,-0.7017,-0.9844,
0.513408,0.4197,1.3417,1.5153,0.5479,0.8424,0.2481,0.4443,-0.7017,-0.9844,
0.515210,0.4197,1.3417,1.5153,1.4752,2.5694,1.7962,0.4443,-0.7017,-0.9844,
0.516376,0.4197,1.3417,1.5153,1.1866,1.8928,1.5663,0.4443,-0.7017,-0.9844,
0.564032,0.4197,1.3417,1.5153,1.1866,1.8928,1.5663,1.6900,-0.2581,-1.4606,
0.585509,0.2318,1.4061,1.8763,1.1866,1.8928,1.5663,1.6900,-0.2581,-1.4606,
0.586568,0.2318,1.4061,1.8763,3.0357,4.5042,5.2788,1.6900,-0.2581,-1.4606,
0.587241,0.2318,1.4061,1.8763,2.9153,2.9743,5.1413,1.6900,-0.2581,-1.4606,
0.644083,0.2318,1.4061,1.8763,2.9153,2.9743,5.1413,4.2410,-0.8853,-1.5586,
0.654339,0.1713,1.2184,1.4521,2.9153,2.9743,5.1413,4.2410,-0.8853,-1.5586,
0.656035,0.1713,1.2184,1.4521,1.2231,1.7779,9.0410,4.2410,-0.8853,-1.5586,
0.656739,0.1713,1.2184,1.4521,1.5636,0.1679,9.8360,4.2410,-0.8853,-1.5586,
0.684551,0.1713,1.2184,1.4521,1.5636,0.1679,9.8360,4.5097,0.1771,-1.8856,
0.724923,-0.1367,0.5294,1.1519,1.5636,0.1679,9.8360,4.5097,0.1771,-1.8856,
0.727491,-0.1367,0.5294,1.1519,1.9196,-2.6162,7.2180,4.5097,0.1771,-1.8856,
0.765034,-0.1367,0.5294,1.1519,1.9196,-2.6162,7.2180,4.7146,-0.1707,-2.3191,
0.794955,-0.1367,0.5294,1.1519,0.3171,-9.1534,6.2195,4.7146,-0.1707,-2.3191,
0.797046,-0.3736,-0.0193,0.3289,0.3171,-9.1534,6.2195,4.7146,-0.1707,-2.3191,
0.797996,-0.3736,-0.0193,0.3289,1.4262,-8.5900,8.0719,4.7146,-0.1707,-2.3191,
0.845095,-0.3736,-0.0193,0.3289,1.4262,-8.5900,8.0719,4.3431,-0.3722,-1.8365,
0.865290,-0.3902,-0.1638,0.0181,1.4262,-8.5900,8.0719,4.3431,-0.3722,-1.8365,
0.866676,-0.3902,-0.1638,0.0181,0.1252,-12.6681,2.2321,4.3431,-0.3722,-1.8365,
0.867961,-0.3902,-0.1638,0.0181,0.7608,-11.2112,3.3386,4.3431,-0.3722,-1.8365,
0.884370,-0.3902,-0.1638,0.0181,0.7608,-11.2112,3.3386,2.5544,-1.1949,-1.1150,
0.936358,-0.3774,-0.2674,-0.1426,0.7608,-11.2112,3.3386,2.5544,-1.1949,-1.1150,
0.937750,-0.3774,-0.2674,-0.1426,0.9776,-11.2591,0.9972,2.5544,-1.1949,-1.1150,
0.938854,-0.3774,-0.2674,-0.1426,1.2602,-9.9484,1.6223,2.5544,-1.1949,-1.1150,
0.965004,-0.3774,-0.2674,-0.1426,1.2602,-9.9484,1.6223,2.2514,-0.3355,-0.9710,
1.006425,-0.5048,-0.3432,-0.7000,1.2602,-9.9484,1.6223,2.2514,-0.3355,-0.9710,
1.009456,-0.5048,-0.3432,-0.7000,1.5557,-9.7308,0.6682,2.2514,-0.3355,-0.9710,
1.046064,-0.5048,-0.3432,-0.7000,1.5557,-9.7308,0.6682,1.1936,0.7620,-1.1116,
1.075779,-0.7739,-0.4656,-0.9642,1.5557,-9.7308,0.6682,1.1936,0.7620,-1.1116,
1.077296,-0.7739,-0.4656,-0.9642,0.5119,-9.3316,-3.9509,1.1936,0.7620,-1.1116,
1.079009,-0.7739,-0.4656,-0.9642,0.5553,-8.3615,-3.3181,1.1936,0.7620,-1.1116,
1.085378,-0.7739,-0.4656,-0.9642,0.5553,-8.3615,-3.3181,0.0473,0.4053,-0.0668,
1.147078,-0.6838,-0.5568,-0.5548,0.5553,-8.3615,-3.3181,0.0473,0.4053,-0.0668,
1.148724,-0.6838,-0.5568,-0.5548,-1.9985,-8.9265,-5.4548,0.0473,0.4053,-0.0668,
1.150003,-0.6838,-0.5568,-0.5548,-2.0439,-8.5550,-5.1073,0.0473,0.4053,-0.0668,
1.165897,-0.6838,-0.5568,-0.5548,-2.0439,-8.5550,-5.1073,-0.9381,0.6800,0.7024,
1.215915,-0.7081,-0.7463,-0.1701,-2.0439,-8.5550,-5.1073,-0.9381,0.6800,0.7024,
1.218598,-0.7081,-0.7463,-0.1701,-1.3439,-9.1355,-1.0013,-0.9381,0.6800,0.7024,
1.219824,-0.7081,-0.7463,-0.1701,-1.6444,-9.0394,-0.9390,-0.9381,0.6800,0.7024,
1.246134,-0.7081,-0.7463,-0.1701,-1.6444,-9.0394,-0.9390,-1.9250,1.4418,1.0764,
1.286462,-0.7081,-0.7463,-0.1701,-1.6444,-9.0394,-0.9390,-3.6914,2.1004,1.3576,
1.288177,-0.8141,-0.8775,0.2190,-1.6444,-9.0394,-0.9390,-3.6914,2.1004,1.3576,
1.289336,-0.8141,-0.8775,0.2190,-2.2487,-10.8674,2.5993,-3.6914,2.1004,1.3576,
1.358008,-0.7506,-0.7073,1.4619,-2.2487,-10.8674,2.5993,-3.6914,2.1004,1.3576,
1.360723,-0.7506,-0.7073,1.4619,-3.6498,-12.3058,5.7836,-3.6914,2.1004,1.3576,
1.363018,-0.7506,-0.7073,1.4619,-4.0941,-12.5876,4.9569,-3.6914,2.1004,1.3576,
1.368702,-0.7506,-0.7073,1.4619,-4.0941,-12.5876,4.9569,-5.7950,2.5202,2.3185,
1.427277,0.1663,-0.4390,2.7168,-4.0941,-12.5876,4.9569,-5.7950,2.5202,2.3185,
1.430689,0.1663,-0.4390,2.7168,-3.9841,-11.2625,15.4475,-5.7950,2.5202,2.3185,
1.432657,0.1663,-0.4390,2.7168,-4.5762,-11.2674,13.8173,-5.7950,2.5202,2.3185,
1.446517,0.1663,-0.4390,2.7168,-4.5762,-11.2674,13.8173,-5.6051,2.0510,4.3794,
1.486935,0.1663,-0.4390,2.7168,-4.5762,-11.2674,13.8173,-4.3685,2.1813,6.2637,
1.498178,0.1663,-0.4390,2.7168,3.2392,-8.5247,24.0512,-4.3685,2.1813,6.2637,
1.500098,2.0904,0.1715,2.8879,3.2392,-8.5247,24.0512,-4.3685,2.1813,6.2637,
1.501579,2.0904,0.1715,2.8879,2.2998,-7.9175,22.2332,-4.3685,2.1813,6.2637,
1.571634,2.0904,0.1715,2.8879,2.2998,-7.9175,22.2332,-2.9522,1.7876,5.7859,
1.573585,2.9926,0.9424,2.4176,2.2998,-7.9175,22.2332,-2.9522,1.7876,5.7859,
1.576490,2.9970,1.0358,2.2343,2.2998,-7.9175,22.2332,-2.9522,1.7876,5.7859,
1.579632,3.0293,1.0607,2.1859,2.2998,-7.9175,22.2332,-2.9522,1.7876,5.7859,
1.581794,3.0190,1.0768,2.0989,2.2998,-7.9175,22.2332,-2.9522,1.7876,5.7859,
1.584232,3.0156,1.0925,2.0187,2.2998,-7.9175,22.2332,-2.9522,1.7876,5.7859,
1.587005,3.0371,1.0915,1.9307,2.2998,-7.9175,22.2332,-2.9522,1.7876,5.7859,
1.591370,3.0523,1.0856,1.8417,2.2998,-7.9175,22.2332,-2.9522,1.7876,5.7859,
1.592375,3.0631,1.0876,1.7542,2.2998,-7.9175,22.2332,-2.9522,1.7876,5.7859,
1.594489,3.0738,1.0925,1.6653,2.2998,-7.9175,22.2332,-2.9522,1.7876,5.7859,
1.597040,3.0679,1.0988,1.5860,2.2998,-7.9175,22.2332,-2.9522,1.7876,5.7859,
1.599381,3.0483,1.1086,1.5015,2.2998,-7.9175,22.2332,-2.9522,1.7876,5.7859,
1.602701,3.0273,1.1208,1.4252,2.2998,-7.9175,22.2332,-2.9522,1.7876,5.7859,
1.603969,2.9990,1.1281,1.3573,2.2998,-7.9175,22.2332,-2.9522,1.7876,5.7859,
1.606825,2.9731,1.1448,1.2976,2.2998,-7.9175,22.2332,-2.9522,1.7876,5.7859,
1.609478,2.9575,1.1614,1.2380,2.2998,-7.9175,22.2332,-2.9522,1.7876,5.7859,
1.611583,2.9369,1.1687,1.1901,2.2998,-7.9175,22.2332,-2.9522,1.7876,5.7859,
1.614567,2.9193,1.1804,1.1397,2.2998,-7.9175,22.2332,-2.9522,1.7876,5.7859,
1.618032,2.9134,1.1941,1.0908,2.2998,-7.9175,22.2332,-2.9522,1.7876,5.7859,
1.619104,2.8978,1.1990,1.0512,2.2998,-7.9175,22.2332,-2.9522,1.7876,5.7859,
1.624260,2.8709,1.2049,1.0068,2.2998,-7.9175,22.2332,-2.9522,1.7876,5.7859,
1.625140,2.8519,1.2137,0.9784,2.2998,-7.9175,22.2332,-2.9522,1.7876,5.7859,
1.626442,2.8327,1.2132,0.9437,2.2998,-7.9175,22.2332,-2.9522,1.7876,5.7859,
1.629461,2.8083,1.2137,0.9090,2.2998,-7.9175,22.2332,-2.9522,1.7876,5.7859,
1.631357,2.7780,1.2161,0.8830,2.2998,-7.9175,22.2332,-2.9522,1.7876,5.7859,
1.634472,2.7541,1.2161,0.8659,2.2998,-7.9175,22.2332,-2.9522,1.7876,5.7859,
1.637021,2.7257,1.2137,0.8415,2.2998,-7.9175,22.2332,-2.9522,1.7876,5.7859,
1.639627,2.7008,1.2064,0.8195,2.2998,-7.9175,22.2332,-2.9522,1.7876,5.7859,
1.640444,2.7008,1.2064,0.8195,19.7747,-1.2721,22.2732,-2.9522,1.7876,5.7859,
1.641761,2.7008,1.2064,0.8195,18.4468,-0.6126,20.9525,-2.9522,1.7876,5.7859,
1.642629,2.7008,1.2064,0.8195,17.4431,-0.2015,19.8200,-2.9522,1.7876,5.7859,
1.643256,2.6734,1.1995,0.7960,17.4431,-0.2015,19.8200,-2.9522,1.7876,5.7859,
1.644067,2.6426,1.1853,0.7750,17.4431,-0.2015,19.8200,-2.9522,1.7876,5.7859,
1.647472,2.6426,1.1853,0.7750,17.4431,-0.2015,19.8200,0.2057,1.0956,4.9364,
1.648308,2.6128,1.1804,0.7540,17.4431,-0.2015,19.8200,0.2057,1.0956,4.9364,
1.649113,2.5878,1.1731,0.7408,17.4431,-0.2015,19.8200,0.2057,1.0956,4.9364,
1.652070,2.5570,1.1633,0.7320,17.4431,-0.2015,19.8200,0.2057,1.0956,4.9364,
1.654067,2.5336,1.1575,0.7183,17.4431,-0.2015,19.8200,0.2057,1.0956,4.9364,
1.656922,2.5126,1.1487,0.6968,17.4431,-0.2015,19.8200,0.2057,1.0956,4.9364,
1.659555,2.4862,1.1398,0.6875,17.4431,-0.2015,19.8200,0.2057,1.0956,4.9364,
1.662042,2.4598,1.1310,0.6768,17.4431,-0.2015,19.8200,0.2057,1.0956,4.9364,
1.664218,2.4246,1.1330,0.6782,17.4431,-0.2015,19.8200,0.2057,1.0956,4.9364,
1.668492,2.3932,1.1384,0.6875,17.4431,-0.2015,19.8200,0.2057,1.0956,4.9364,
1.670390,2.3625,1.1388,0.7002,17.4431,-0.2015,19.8200,0.2057,1.0956,4.9364,
1.674046,2.3302,1.1310,0.7222,17.4431,-0.2015,19.8200,0.2057,1.0956,4.9364,
1.676282,2.3019,1.1296,0.7486,17.4431,-0.2015,19.8200,0.2057,1.0956,4.9364,
1.676962,2.2706,1.1208,0.7843,17.4431,-0.2015,19.8200,0.2057,1.0956,4.9364,
1.679861,2.2388,1.1198,0.8253,17.4431,-0.2015,19.8200,0.2057,1.0956,4.9364,
1.683093,2.2060,1.1266,0.8654,17.4431,-0.2015,19.8200,0.2057,1.0956,4.9364,
1.685670,2.1723,1.1218,0.9085,17.4431,-0.2015,19.8200,0.2057,1.0956,4.9364,
1.687729,2.1723,1.1218,0.9085,17.4431,-0.2015,19.8200,2.3491,0.7084,2.1472,
1.688557,2.1327,1.1208,0.9583,17.4431,-0.2015,19.8200,2.3491,0.7084,2.1472,
1.689260,2.0995,1.1198,1.0077,17.4431,-0.2015,19.8200,2.3491,0.7084,2.1472,
1.693184,2.0628,1.1203,1.0547,17.4431,-0.2015,19.8200,2.3491,0.7084,2.1472,
1.770595,2.0628,1.1203,1.0547,17.4431,-0.2015,19.8200,2.0753,0.0165,-0.1354,
1.808684,1.2762,0.8945,1.6954,17.4431,-0.2015,19.8200,2.0753,0.0165,-0.1354,
1.811355,1.2762,0.8945,1.6954,24.5743,8.5739,5.2009,2.0753,0.0165,-0.1354,
1.812511,1.2762,0.8945,1.6954,23.4337,7.6236,5.1201,2.0753,0.0165,-0.1354,
1.813705,1.2762,0.8945,1.6954,22.3691,6.6652,5.1101,2.0753,0.0165,-0.1354,
1.814578,1.2762,0.8945,1.6954,21.3296,5.4271,5.3870,2.0753,0.0165,-0.1354,
1.848507,1.2762,0.8945,1.6954,21.3296,5.4271,5.3870,3.0235,-0.8679,-1.0764,
1.880787,1.0253,0.7161,1.3082,21.3296,5.4271,5.3870,3.0235,-0.8679,-1.0764,
1.883018,1.0253,0.7161,1.3082,4.8240,1.6665,8.7019,3.0235,-0.8679,-1.0764,
1.884302,1.0253,0.7161,1.3082,4.3831,0.2049,10.1108,3.0235,-0.8679,-1.0764,
1.888072,1.0253,0.7161,1.3082,4.3831,0.2049,10.1108,4.4905,-2.2069,-0.7608,
1.949010,0.7885,0.4437,1.1048,4.3831,0.2049,10.1108,4.4905,-2.2069,-0.7608,
1.951103,0.7885,0.4437,1.1048,1.6146,-2.6402,8.4235,4.4905,-2.2069,-0.7608,
1.952243,0.7885,0.4437,1.1048,1.6790,-3.3862,10.4758,4.4905,-2.2069,-0.7608,
1.968501,0.7885,0.4437,1.1048,1.6790,-3.3862,10.4758,3.7786,-2.8025,-1.4282,
2.019210,0.2109,0.0742,0.6839,1.6790,-3.3862,10.4758,3.7786,-2.8025,-1.4282,
2.022134,0.2109,0.0742,0.6839,0.0287,-6.5261,10.4836,3.7786,-2.8025,-1.4282,
2.022914,0.2109,0.0742,0.6839,0.9441,-6.6818,12.2989,3.7786,-2.8025,-1.4282,
2.049225,0.2109,0.0742,0.6839,0.9441,-6.6818,12.2989,3.4149,-2.8193,-1.9162,
2.092001,0.2109,0.0742,0.6839,0.9441,-6.6818,12.2989,2.6624,-2.7591,-1.2407,
2.094501,-0.0215,0.0121,0.1657,0.9441,-6.6818,12.2989,2.6624,-2.7591,-1.2407,
2.096077,-0.0215,0.0121,0.1657,-3.6081,-9.9572,9.8577,2.6624,-2.7591,-1.2407,
2.159372,0.0217,-0.0117,-0.0629,-3.6081,-9.9572,9.8577,2.6624,-2.7591,-1.2407,
2.162326,0.0217,-0.0117,-0.0629,-4.7763,-10.0085,6.1570,2.6624,-2.7591,-1.2407,
2.164324,0.0217,-0.0117,-0.0629,-3.8135,-9.3935,7.0075,2.6624,-2.7591,-1.2407,
2.177960,0.0217,-0.0117,-0.0629,-3.8135,-9.3935,7.0075,1.8608,-1.9136,-0.9736,
2.230036,-0.1929,-0.1640,-0.5514,-3.8135,-9.3935,7.0075,1.8608,-1.9136,-0.9736,
2.231698,-0.1929,-0.1640,-0.5514,-2.5480,-9.0052,5.4165,1.8608,-1.9136,-0.9736,
2.232410,-0.1929,-0.1640,-0.5514,-1.8685,-8.3721,5.8530,1.8608,-1.9136,-0.9736,
2.251121,-0.1929,-0.1640,-0.5514,-1.8685,-8.3721,5.8530,1.7294,-0.5053,-1.3619,
2.291673,-0.1929,-0.1640,-0.5514,-1.8685,-8.3721,5.8530,1.0402,0.1290,-0.8618,
2.300974,-0.1202,-0.4429,-0.7313,-1.8685,-8.3721,5.8530,1.0402,0.1290,-0.8618,
2.302010,-0.1202,-0.4429,-0.7313,-3.4712,-9.3063,1.3822,1.0402,0.1290,-0.8618,
2.302747,-0.1202,-0.4429,-0.7313,-3.1830,-8.7484,1.6149,1.0402,0.1290,-0.8618,
2.370412,0.3266,-0.6721,-1.1885,-3.1830,-8.7484,1.6149,1.0402,0.1290,-0.8618,
2.372201,0.3266,-0.6721,-1.1885,-2.5296,-10.7709,0.1358,1.0402,0.1290,-0.8618,
2.375092,0.3266,-0.6721,-1.1885,-2.5296,-10.7709,0.1358,0.7545,0.3435,0.2927,
2.410410,0.3266,-0.6721,-1.1885,-2.5296,-10.7709,0.1358,-1.8996,-0.0158,0.2011,
2.441818,0.4893,-0.6962,-0.5966,-2.5296,-10.7709,0.1358,-1.8996,-0.0158,0.2011,
2.443490,0.4893,-0.6962,-0.5966,1.5643,-12.5338,-4.2006,-1.8996,-0.0158,0.2011,
2.444980,0.4893,-0.6962,-0.5966,1.4694,-12.6374,-4.5199,-1.8996,-0.0158,0.2011,
2.491187,0.4893,-0.6962,-0.5966,1.4694,-12.6374,-4.5199,-3.2424,-1.0442,0.2875,
2.513436,0.5100,-0.4239,-0.0430,1.4694,-12.6374,-4.5199,-3.2424,-1.0442,0.2875,
2.516113,0.5100,-0.4239,-0.0430,3.0826,-13.1614,0.6057,-3.2424,-1.0442,0.2875,
2.518508,0.5100,-0.4239,-0.0430,3.1843,-13.5368,-0.2579,-3.2424,-1.0442,0.2875,
2.570498,0.5100,-0.4239,-0.0430,3.1843,-13.5368,-0.2579,-4.3519,-2.2800,1.0470,
2.580953,0.9482,-0.0474,0.5086,3.1843,-13.5368,-0.2579,-4.3519,-2.2800,1.0470,
2.582803,0.9482,-0.0474,0.5086,3.4334,-11.3048,3.9583,-4.3519,-2.2800,1.0470,
2.584353,0.9482,-0.0474,0.5086,3.3399,-11.5557,2.6426,-4.3519,-2.2800,1.0470,
2.612917,0.9482,-0.0474,0.5086,3.3399,-11.5557,2.6426,-6.3155,-2.4978,0.6778,
2.652140,1.0023,0.3654,2.0344,3.3399,-11.5557,2.6426,-6.3155,-2.4978,0.6778,
2.655366,1.0023,0.3654,2.0344,7.4218,-8.1238,6.0608,-6.3155,-2.4978,0.6778,
2.690899,1.0023,0.3654,2.0344,7.4218,-8.1238,6.0608,-5.9847,-3.2731,1.0088,
2.722212,0.9697,0.8857,2.6021,7.4218,-8.1238,6.0608,-5.9847,-3.2731,1.0088,
2.723196,0.9697,0.8857,2.6021,7.4710,-3.9365,18.6689,-5.9847,-3.2731,1.0088,
2.724006,0.9697,0.8857,2.6021,6.6992,-3.2854,16.8579,-5.9847,-3.2731,1.0088,
2.771711,0.9697,0.8857,2.6021,6.6992,-3.2854,16.8579,-4.9223,-2.3536,0.5647,
2.791689,0.9956,0.9720,2.1806,6.6992,-3.2854,16.8579,-4.9223,-2.3536,0.5647,
2.792724,0.9956,0.9720,2.1806,5.7011,2.5957,20.7572,-4.9223,-2.3536,0.5647,
2.793696,0.9956,0.9720,2.1806,5.0013,3.3698,19.6451,-4.9223,-2.3536,0.5647,
2.812530,0.9956,0.9720,2.1806,5.0013,3.3698,19.6451,-3.7739,-1.7719,-0.6955,
2.862939,0.4449,0.7531,1.8002,5.0013,3.3698,19.6451,-3.7739,-1.7719,-0.6955,
2.864591,0.4449,0.7531,1.8002,4.8347,4.8532,14.6814,-3.7739,-1.7719,-0.6955,
2.865893,0.4449,0.7531,1.8002,4.5323,5.3195,14.0126,-3.7739,-1.7719,-0.6955,
2.891637,0.4449,0.7531,1.8002,4.5323,5.3195,14.0126,-3.3012,-1.8371,-1.8510,
2.932259,-0.2103,0.7771,1.7654,4.5323,5.3195,14.0126,-3.3012,-1.8371,-1.8510,
2.933940,-0.2103,0.7771,1.7654,-1.0978,3.6032,9.9181,-3.3012,-1.8371,-1.8510,
2.971692,-0.2103,0.7771,1.7654,-1.0978,3.6032,9.9181,-2.1369,-1.6217,-1.5487,
3.002580,-0.3234,0.8876,1.5243,-1.0978,3.6032,9.9181,-2.1369,-1.6217,-1.5487,
3.004503,-0.3234,0.8876,1.5243,-7.6060,4.0810,9.3713,-2.1369,-1.6217,-1.5487,
3.005654,-0.3234,0.8876,1.5243,-7.6608,4.1846,9.2166,-2.1369,-1.6217,-1.5487,
3.013230,-0.3234,0.8876,1.5243,-7.6608,4.1846,9.2166,-0.5192,-0.9803,-0.3853,
3.073795,0.0870,0.7507,1.1359,-7.6608,4.1846,9.2166,-0.5192,-0.9803,-0.3853,
3.075176,0.0870,0.7507,1.1359,-8.8003,5.2019,6.8313,-0.5192,-0.9803,-0.3853,
3.076024,0.0870,0.7507,1.1359,-8.5095,5.0796,6.6065,-0.5192,-0.9803,-0.3853,
3.092153,0.0870,0.7507,1.1359,-8.5095,5.0796,6.6065,0.0955,0.3091,-0.1551,
3.143088,0.0870,0.7507,1.1359,-4.2148,3.5292,2.6805,0.0955,0.3091,-0.1551,
3.144948,0.3529,0.5132,0.8946,-4.2148,3.5292,2.6805,0.0955,0.3091,-0.1551,
3.146041,0.3529,0.5132,0.8946,-3.9301,3.2178,2.6120,0.0955,0.3091,-0.1551,
3.172744,0.3529,0.5132,0.8946,-3.9301,3.2178,2.6120,0.5543,0.5110,-0.1961,
3.212988,0.3529,0.5132,0.8946,-3.9301,3.2178,2.6120,0.7813,0.5204,0.0901,
3.214451,0.4908,0.3731,0.7611,-3.9301,3.2178,2.6120,0.7813,0.5204,0.0901,
3.215435,0.4908,0.3731,0.7611,-1.0331,0.6503,0.2087,0.7813,0.5204,0.0901,
3.284569,0.5451,0.3611,0.7025,-1.0331,0.6503,0.2087,0.7813,0.5204,0.0901,
3.286043,0.5451,0.3611,0.7025,0.4601,-0.9531,-1.0194,0.7813,0.5204,0.0901,
3.286927,0.5451,0.3611,0.7025,0.5207,-1.1424,-0.9131,0.7813,0.5204,0.0901,
3.293315,0.5451,0.3611,0.7025,0.5207,-1.1424,-0.9131,0.5949,0.2369,-0.0308,
3.353707,0.4798,0.3813,0.6826,0.5207,-1.1424,-0.9131,0.5949,0.2369,-0.0308,
3.355077,0.4798,0.3813,0.6826,1.1214,-1.4240,-1.3875,0.5949,0.2369,-0.0308,
3.356198,0.4798,0.3813,0.6826,1.1680,-1.5145,-1.3168,0.5949,0.2369,-0.0308,
3.373558,0.4798,0.3813,0.6826,1.1680,-1.5145,-1.3168,0.2618,0.1478,-0.1344,
3.414124,0.4798,0.3813,0.6826,1.1680,-1.5145,-1.3168,0.0149,0.1328,-0.0277,
3.423819,0.3840,0.4161,0.7807,1.1680,-1.5145,-1.3168,0.0149,0.1328,-0.0277,
3.425453,0.3840,0.4161,0.7807,0.5954,-1.3410,-1.4832,0.0149,0.1328,-0.0277,
3.426394,0.3840,0.4161,0.7807,0.6268,-1.3151,-1.4691,0.0149,0.1328,-0.0277,
3.495231,0.4506,0.4550,0.8111,0.6268,-1.3151,-1.4691,0.0149,0.1328,-0.0277,
3.498989,0.4506,0.4550,0.8111,0.6268,-1.3151,-1.4691,0.1069,0.0233,0.2087,
3.501238,0.4506,0.4550,0.8111,-0.3484,-0.9419,-0.4818,0.1069,0.0233,0.2087,
3.565391,0.4506,0.4550,0.8111,0.2712,-0.5568,-0.1603,0.1069,0.0233,0.2087,
3.569336,0.4506,0.4550,0.8111,0.2582,-0.5795,-0.1315,0.1069,0.0233,0.2087,
3.579055,0.4506,0.4550,0.8111,0.2582,-0.5795,-0.1315,0.1585,0.0631,0.1210,
3.579934,0.4627,0.4671,0.7403,0.2582,-0.5795,-0.1315,0.1585,0.0631,0.1210,
3.585003,0.4510,0.4681,0.7393,0.2582,-0.5795,-0.1315,0.1585,0.0631,0.1210,
3.587102,0.4539,0.4784,0.7481,0.2582,-0.5795,-0.1315,0.1585,0.0631,0.1210,
3.595301,0.4480,0.4798,0.7447,0.2582,-0.5795,-0.1315,0.1585,0.0631,0.1210,
3.598160,0.4490,0.4823,0.7457,0.2582,-0.5795,-0.1315,0.1585,0.0631,0.1210,
3.599952,0.4500,0.4764,0.7432,0.2582,-0.5795,-0.1315,0.1585,0.0631,0.1210,
3.602124,0.4446,0.4769,0.7467,0.2582,-0.5795,-0.1315,0.1585,0.0631,0.1210,
3.602894,0.4456,0.4735,0.7432,0.2582,-0.5795,-0.1315,0.1585,0.0631,0.1210,
3.603622,0.4485,0.4813,0.7432,0.2582,-0.5795,-0.1315,0.1585,0.0631,0.1210,
3.604339,0.4476,0.4803,0.7432,0.2582,-0.5795,-0.1315,0.1585,0.0631,0.1210,
3.607727,0.4480,0.4789,0.7452,0.2582,-0.5795,-0.1315,0.1585,0.0631,0.1210,
3.609037,0.4461,0.4759,0.7476,0.2582,-0.5795,-0.1315,0.1585,0.0631,0.1210,
3.613293,0.4485,0.4764,0.7481,0.2582,-0.5795,-0.1315,0.1585,0.0631,0.1210,
3.614309,0.4485,0.4764,0.7481,0.2582,-0.5795,-0.1315,-0.0064,0.0381,-0.0067,
3.615007,0.4505,0.4769,0.7525,0.2582,-0.5795,-0.1315,-0.0064,0.0381,-0.0067,
3.616266,0.4476,0.4755,0.7540,0.2582,-0.5795,-0.1315,-0.0064,0.0381,-0.0067,
3.618483,0.4446,0.4769,0.7559,0.2582,-0.5795,-0.1315,-0.0064,0.0381,-0.0067,
3.621163,0.4466,0.4720,0.7574,0.2582,-0.5795,-0.1315,-0.0064,0.0381,-0.0067,
3.623476,0.4480,0.4730,0.7613,0.2582,-0.5795,-0.1315,-0.0064,0.0381,-0.0067,
3.626151,0.4417,0.4774,0.7657,0.2582,-0.5795,-0.1315,-0.0064,0.0381,-0.0067,
3.628693,0.4343,0.4774,0.7706,0.2582,-0.5795,-0.1315,-0.0064,0.0381,-0.0067,
3.631164,0.4324,0.4730,0.7725,0.2582,-0.5795,-0.1315,-0.0064,0.0381,-0.0067,
3.634481,0.4304,0.4745,0.7764,0.2582,-0.5795,-0.1315,-0.0064,0.0381,-0.0067,
3.636369,0.4275,0.4730,0.7804,0.2582,-0.5795,-0.1315,-0.0064,0.0381,-0.0067,
3.638691,0.4236,0.4691,0.7858,0.2582,-0.5795,-0.1315,-0.0064,0.0381,-0.0067,
3.641515,0.4231,0.4701,0.7916,0.2582,-0.5795,-0.1315,-0.0064,0.0381,-0.0067,
3.646178,0.4206,0.4711,0.7951,0.2582,-0.5795,-0.1315,-0.0064,0.0381,-0.0067,
3.647457,0.4206,0.4740,0.8029,0.2582,-0.5795,-0.1315,-0.0064,0.0381,-0.0067,
3.648240,0.4206,0.4740,0.8029,0.4870,-0.4000,-0.8711,-0.0064,0.0381,-0.0067,
3.649708,0.4206,0.4740,0.8029,0.4908,-0.3883,-0.8618,-0.0064,0.0381,-0.0067,
3.651014,0.4216,0.4764,0.8073,0.4908,-0.3883,-0.8618,-0.0064,0.0381,-0.0067,
3.652866,0.4211,0.4774,0.8112,0.4908,-0.3883,-0.8618,-0.0064,0.0381,-0.0067,
3.654019,0.4236,0.4769,0.8122,0.4908,-0.3883,-0.8618,-0.0064,0.0381,-0.0067,
3.656721,0.4236,0.4730,0.8126,0.4908,-0.3883,-0.8618,-0.0064,0.0381,-0.0067,
3.658657,0.4206,0.4745,0.8151,0.4908,-0.3883,-0.8618,-0.0064,0.0381,-0.0067,
3.661563,0.4255,0.4759,0.8214,0.4908,-0.3883,-0.8618,-0.0064,0.0381,-0.0067,
3.663753,0.4241,0.4755,0.8205,0.4908,-0.3883,-0.8618,-0.0064,0.0381,-0.0067,
3.667612,0.4241,0.4774,0.8195,0.4908,-0.3883,-0.8618,-0.0064,0.0381,-0.0067,
3.668753,0.4226,0.4769,0.8200,0.4908,-0.3883,-0.8618,-0.0064,0.0381,-0.0067,
3.671251,0.4231,0.4789,0.8205,0.4908,-0.3883,-0.8618,-0.0064,0.0381,-0.0067,
3.675069,0.4299,0.4759,0.8195,0.4908,-0.3883,-0.8618,-0.0064,0.0381,-0.0067,
3.676200,0.4294,0.4774,0.8122,0.4908,-0.3883,-0.8618,-0.0064,0.0381,-0.0067,
3.678990,0.4255,0.4720,0.8097,0.4908,-0.3883,-0.8618,-0.0064,0.0381,-0.0067,
3.681566,0.4270,0.4725,0.8058,0.4908,-0.3883,-0.8618,-0.0064,0.0381,-0.0067,
3.683897,0.4289,0.4774,0.7965,0.4908,-0.3883,-0.8618,-0.0064,0.0381,-0.0067,
3.686878,0.4260,0.4740,0.7951,0.4908,-0.3883,-0.8618,-0.0064,0.0381,-0.0067,
3.690587,0.4201,0.4750,0.7936,0.4908,-0.3883,-0.8618,-0.0064,0.0381,-0.0067,
3.701559,0.4201,0.4750,0.7936,0.4908,-0.3883,-0.8618,-0.0459,-0.0316,-0.0177,
3.776978,0.4201,0.4750,0.7936,0.4908,-0.3883,-0.8618,0.0244,0.0015,0.0459,
3.796106,0.4256,0.4860,0.7772,0.4908,-0.3883,-0.8618,0.0244,0.0015,0.0459,
3.799748,0.4256,0.4860,0.7772,0.1683,-0.3600,-0.5969,0.0244,0.0015,0.0459,
3.802180,0.4256,0.4860,0.7772,0.1553,-0.3397,-0.5875,0.0244,0.0015,0.0459,
3.803646,0.4256,0.4860,0.7772,0.1445,-0.3329,-0.5712,0.0244,0.0015,0.0459,
3.805056,0.4256,0.4860,0.7772,0.1290,-0.3257,-0.5529,0.0244,0.0015,0.0459,
3.815412,0.4256,0.4860,0.7772,0.1290,-0.3257,-0.5529,0.0117,-0.0296,0.0541,
3.866839,0.4400,0.4886,0.7767,0.1290,-0.3257,-0.5529,0.0117,-0.0296,0.0541,
3.870488,0.4400,0.4886,0.7767,-0.0523,-0.2097,-0.3620,0.0117,-0.0296,0.0541,
3.872522,0.4400,0.4886,0.7767,-0.0509,-0.2106,-0.3515,0.0117,-0.0296,0.0541,
3.895985,0.4400,0.4886,0.7767,-0.0509,-0.2106,-0.3515,0.0138,0.0182,-0.0266,
3.936437,0.4190,0.4825,0.7954,-0.0509,-0.2106,-0.3515,0.0138,0.0182,-0.0266,
3.939518,0.4190,0.4825,0.7954,0.1093,-0.1929,-0.3532,0.0138,0.0182,-0.0266,
3.976355,0.4190,0.4825,0.7954,0.1093,-0.1929,-0.3532,0.0473,0.0192,0.0172,
4.006610,0.4378,0.4839,0.7654,0.1093,-0.1929,-0.3532,0.0473,0.0192,0.0172,
4.010304,0.4378,0.4839,0.7654,-0.0917,-0.2579,-0.1618,0.0473,0.0192,0.0172,
4.011988,0.4378,0.4839,0.7654,-0.0920,-0.2714,-0.1459,0.0473,0.0192,0.0172,
4.019164,0.4378,0.4839,0.7654,-0.0920,-0.2714,-0.1459,0.0763,0.0300,0.0511,
4.077521,0.4505,0.4829,0.7608,-0.0920,-0.2714,-0.1459,0.0763,0.0300,0.0511,
4.080592,0.4505,0.4829,0.7608,0.0820,-0.2426,-0.3825,0.0763,0.0300,0.0511,
4.083947,0.4505,0.4829,0.7608,0.0699,-0.2272,-0.3311,0.0763,0.0300,0.0511,
4.097304,0.4505,0.4829,0.7608,0.0699,-0.2272,-0.3311,0.0029,-0.0083,-0.0483,
4.147048,0.4221,0.5001,0.8125,0.0699,-0.2272,-0.3311,0.0029,-0.0083,-0.0483,
4.150806,0.4221,0.5001,0.8125,0.1873,-0.2159,-0.3389,0.0029,-0.0083,-0.0483,
4.153076,0.4221,0.5001,0.8125,0.1947,-0.2008,-0.3108,0.0029,-0.0083,-0.0483,
4.177311,0.4221,0.5001,0.8125,0.1947,-0.2008,-0.3108,-0.0230,0.0353,-0.1087,
4.217842,0.4221,0.5001,0.8125,0.1947,-0.2008,-0.3108,0.0301,0.2473,-0.1542,
4.221688,0.4221,0.5001,0.8125,-0.0411,-0.0435,0.1655,0.0301,0.2473,-0.1542,
4.223296,0.4512,0.6536,0.9826,-0.0411,-0.0435,0.1655,0.0301,0.2473,-0.1542,
4.289122,0.4718,0.9633,1.0940,-0.0411,-0.0435,0.1655,0.0301,0.2473,-0.1542,
4.291433,0.4718,0.9633,1.0940,0.3594,1.3970,1.7596,0.0301,0.2473,-0.1542,
4.292468,0.4718,0.9633,1.0940,0.6580,1.2474,1.6565,0.0301,0.2473,-0.1542,
4.297456,0.4718,0.9633,1.0940,0.6580,1.2474,1.6565,0.4345,0.9550,-0.3254,
4.357554,0.6807,1.3587,1.3329,0.6580,1.2474,1.6565,0.4345,0.9550,-0.3254,
4.360322,0.6807,1.3587,1.3329,1.2726,3.9593,2.6721,0.4345,0.9550,-0.3254,
4.361575,0.6807,1.3587,1.3329,1.5729,3.4760,2.7899,0.4345,0.9550,-0.3254,
4.377510,0.6807,1.3587,1.3329,1.5729,3.4760,2.7899,1.3457,0.9919,-0.1280,
4.417471,0.6807,1.3587,1.3329,1.5729,3.4760,2.7899,2.4779,1.5917,-0.7580,
4.427864,0.6552,1.4722,1.6337,1.5729,3.4760,2.7899,2.4779,1.5917,-0.7580,
4.429860,0.6552,1.4722,1.6337,3.9907,6.6543,5.3394,2.4779,1.5917,-0.7580,
4.430639,0.6552,1.4722,1.6337,4.6572,5.6843,5.8325,2.4779,1.5917,-0.7580,
4.497946,0.6552,1.4722,1.6337,4.6572,5.6843,5.8325,3.8869,1.1884,-1.2297,
4.500067,0.3438,1.3361,1.3862,4.6572,5.6843,5.8325,3.8869,1.1884,-1.2297,
4.501925,0.3438,1.3361,1.3862,5.1500,5.6310,9.7160,3.8869,1.1884,-1.2297,
4.568332,0.1500,1.0230,1.1296,5.1500,5.6310,9.7160,3.8869,1.1884,-1.2297,
4.570530,0.1500,1.0230,1.1296,2.6917,3.2770,8.6444,3.8869,1.1884,-1.2297,
4.571443,0.1500,1.0230,1.1296,3.0900,2.4822,10.3273,3.8869,1.1884,-1.2297,
4.580497,0.1500,1.0230,1.1296,3.0900,2.4822,10.3273,4.6166,-0.1049,-1.0534,
4.618361,0.1500,1.0230,1.1296,3.0900,2.4822,10.3273,4.8014,-1.4170,-1.2797,
4.638356,0.1059,0.3695,0.5403,3.0900,2.4822,10.3273,4.8014,-1.4170,-1.2797,
4.641096,0.1059,0.3695,0.5403,1.4719,-1.0134,9.8757,4.8014,-1.4170,-1.2797,
4.642157,0.1059,0.3695,0.5403,2.0480,-1.0082,11.7602,4.8014,-1.4170,-1.2797,
4.698888,0.1059,0.3695,0.5403,2.0480,-1.0082,11.7602,3.7210,-1.7832,-1.9401,
4.709179,-0.0537,-0.0638,0.1531,2.0480,-1.0082,11.7602,3.7210,-1.7832,-1.9401,
4.710614,-0.0537,-0.0638,0.1531,2.4659,-6.9574,7.6097,3.7210,-1.7832,-1.9401,
4.711615,-0.0537,-0.0638,0.1531,3.5129,-6.3080,8.6350,3.7210,-1.7832,-1.9401,
4.779692,-0.3415,-0.2370,-0.1102,3.5129,-6.3080,8.6350,3.7210,-1.7832,-1.9401,
4.782708,-0.3415,-0.2370,-0.1102,3.5129,-6.3080,8.6350,2.3823,-1.7041,-2.2108,
4.784041,-0.3415,-0.2370,-0.1102,3.0322,-9.7486,5.4783,2.3823,-1.7041,-2.2108,
4.819112,-0.3415,-0.2370,-0.1102,3.0322,-9.7486,5.4783,1.5053,-1.3216,-1.5298,
4.848783,-0.3415,-0.2370,-0.1102,1.0797,-10.6378,3.3115,1.5053,-1.3216,-1.5298,
4.851220,-0.3415,-0.2370,-0.1102,1.7515,-9.9436,3.4496,1.5053,-1.3216,-1.5298,
4.852016,-0.4744,-0.1980,-0.1791,1.7515,-9.9436,3.4496,1.5053,-1.3216,-1.5298,
4.899470,-0.4744,-0.1980,-0.1791,1.7515,-9.9436,3.4496,1.0041,0.1840,-1.1744,
4.919080,-0.6451,-0.3802,-0.6157,1.7515,-9.9436,3.4496,1.0041,0.1840,-1.1744,
4.921029,-0.6451,-0.3802,-0.6157,0.8235,-8.9825,2.9626,1.0041,0.1840,-1.1744,
4.921788,-0.6451,-0.3802,-0.6157,0.9897,-8.3652,3.3544,1.0041,0.1840,-1.1744,
4.979790,-0.6451,-0.3802,-0.6157,0.9897,-8.3652,3.3544,0.2608,1.5844,-1.1964,
4.992314,-0.7434,-0.5561,-0.7316,0.9897,-8.3652,3.3544,0.2608,1.5844,-1.1964,
4.994011,-0.7434,-0.5561,-0.7316,-0.6991,-9.6422,-0.4810,0.2608,1.5844,-1.1964,
4.994761,-0.7434,-0.5561,-0.7316,-0.8792,-9.3397,-0.1430,0.2608,1.5844,-1.1964,
5.019728,-0.7434,-0.5561,-0.7316,-0.8792,-9.3397,-0.1430,-1.1614,2.1900,-1.0672,
5.059991,-0.9786,-0.5045,-0.3212,-0.8792,-9.3397,-0.1430,-1.1614,2.1900,-1.0672,
5.062338,-0.9786,-0.5045,-0.3212,-2.1116,-10.9872,-1.0962,-1.1614,2.1900,-1.0672,
5.102132,-0.9786,-0.5045,-0.3212,-2.1116,-10.9872,-1.0962,-2.5321,2.8258,-0.4377,
5.130016,-0.5843,-0.2697,0.0009,-2.1116,-10.9872,-1.0962,-2.5321,2.8258,-0.4377,
5.133007,-0.5843,-0.2697,0.0009,-4.8462,-10.7129,2.9017,-2.5321,2.8258,-0.4377,
5.134492,-0.5843,-0.2697,0.0009,-5.4446,-11.2026,2.6696,-2.5321,2.8258,-0.4377,
5.180472,-0.5843,-0.2697,0.0009,-5.4446,-11.2026,2.6696,-3.5282,2.3902,0.5108,
5.199730,-0.3204,-0.3189,0.5651,-5.4446,-11.2026,2.6696,-3.5282,2.3902,0.5108,
5.201455,-0.3204,-0.3189,0.5651,-2.2126,-9.5934,5.1674,-3.5282,2.3902,0.5108,
5.202164,-0.3204,-0.3189,0.5651,-2.8113,-10.2499,4.2387,-3.5282,2.3902,0.5108,
5.220174,-0.3204,-0.3189,0.5651,-2.8113,-10.2499,4.2387,-3.9364,2.3809,0.8627,
5.270742,-0.1380,-0.2359,0.7651,-2.8113,-10.2499,4.2387,-3.9364,2.3809,0.8627,
5.274051,-0.1380,-0.2359,0.7651,-0.8679,-11.2293,8.6096,-3.9364,2.3809,0.8627,
5.275634,-0.1380,-0.2359,0.7651,-1.5712,-11.5835,7.1470,-3.9364,2.3809,0.8627,
5.300358,-0.1380,-0.2359,0.7651,-1.5712,-11.5835,7.1470,-5.0145,1.8658,1.8227,
5.341228,0.4154,0.0403,1.8801,-1.5712,-11.5835,7.1470,-5.0145,1.8658,1.8227,
5.343070,0.4154,0.0403,1.8801,-0.5787,-10.8393,7.0377,-5.0145,1.8658,1.8227,
5.380711,0.4154,0.0403,1.8801,-0.5787,-10.8393,7.0377,-6.9761,1.5841,2.4313,
5.411026,0.7833,0.5092,3.0266,-0.5787,-10.8393,7.0377,-6.9761,1.5841,2.4313,
5.413415,0.7833,0.5092,3.0266,4.0758,-7.5845,15.3756,-6.9761,1.5841,2.4313,
5.414328,0.7833,0.5092,3.0266,3.2592,-6.3644,13.1779,-6.9761,1.5841,2.4313,
5.420747,0.7833,0.5092,3.0266,3.2592,-6.3644,13.1779,-6.2002,0.7177,3.3968,
5.482017,1.5848,1.1941,3.0793,3.2592,-6.3644,13.1779,-6.2002,0.7177,3.3968,
5.484248,1.5848,1.1941,3.0793,6.0766,-0.1320,22.5409,-6.2002,0.7177,3.3968,
5.485346,1.5848,1.1941,3.0793,5.1300,1.2152,21.5912,-6.2002,0.7177,3.3968,
5.502257,1.5848,1.1941,3.0793,5.1300,1.2152,21.5912,-2.0807,0.2482,5.2741,
5.539665,2.1963,1.4806,1.5543,5.1300,1.2152,21.5912,-2.0807,0.2482,5.2741,
5.541362,2.1885,1.3921,1.4232,5.1300,1.2152,21.5912,-2.0807,0.2482,5.2741,
5.542810,2.1997,1.3838,1.4145,5.1300,1.2152,21.5912,-2.0807,0.2482,5.2741,
5.545415,2.1816,1.3701,1.3856,5.1300,1.2152,21.5912,-2.0807,0.2482,5.2741,
5.547987,2.1591,1.3554,1.3617,5.1300,1.2152,21.5912,-2.0807,0.2482,5.2741,
5.550717,2.1371,1.3422,1.3397,5.1300,1.2152,21.5912,-2.0807,0.2482,5.2741,
5.553195,2.1161,1.3261,1.3196,5.1300,1.2152,21.5912,-2.0807,0.2482,5.2741,
5.556337,2.0990,1.3105,1.2986,5.1300,1.2152,21.5912,-2.0807,0.2482,5.2741,
5.558248,2.0863,1.2904,1.2742,5.1300,1.2152,21.5912,-2.0807,0.2482,5.2741,
5.560956,2.0691,1.2675,1.2556,5.1300,1.2152,21.5912,-2.0807,0.2482,5.2741,
5.563203,2.0388,1.2469,1.2473,5.1300,1.2152,21.5912,-2.0807,0.2482,5.2741,
5.568275,2.0095,1.2288,1.2507,5.1300,1.2152,21.5912,-2.0807,0.2482,5.2741,
5.570096,1.9743,1.2010,1.2653,5.1300,1.2152,21.5912,-2.0807,0.2482,5.2741,
5.570939,1.9420,1.1780,1.2776,5.1300,1.2152,21.5912,-2.0807,0.2482,5.2741,
5.573474,1.9093,1.1584,1.2918,5.1300,1.2152,21.5912,-2.0807,0.2482,5.2741,
5.575699,1.8809,1.1330,1.3079,5.1300,1.2152,21.5912,-2.0807,0.2482,5.2741,
5.578725,1.8384,1.1115,1.3280,5.1300,1.2152,21.5912,-2.0807,0.2482,5.2741,
5.581102,1.8384,1.1115,1.3280,5.1300,1.2152,21.5912,1.4104,1.4081,4.5126,
5.581919,1.7841,1.0949,1.3582,5.1300,1.2152,21.5912,1.4104,1.4081,4.5126,
5.583141,1.7235,1.0812,1.3866,5.1300,1.2152,21.5912,1.4104,1.4081,4.5126,
5.585851,1.6614,1.0699,1.4071,5.1300,1.2152,21.5912,1.4104,1.4081,4.5126,
5.590117,1.5984,1.0602,1.4228,5.1300,1.2152,21.5912,1.4104,1.4081,4.5126,
5.591184,1.5309,1.0509,1.4389,5.1300,1.2152,21.5912,1.4104,1.4081,4.5126,
5.593172,1.4658,1.0392,1.4516,5.1300,1.2152,21.5912,1.4104,1.4081,4.5126,
5.595734,1.4038,1.0314,1.4726,5.1300,1.2152,21.5912,1.4104,1.4081,4.5126,
5.598585,1.3471,1.0284,1.4932,5.1300,1.2152,21.5912,1.4104,1.4081,4.5126,
5.601813,1.2952,1.0279,1.5113,5.1300,1.2152,21.5912,1.4104,1.4081,4.5126,
5.603416,1.2493,1.0249,1.5367,5.1300,1.2152,21.5912,1.4104,1.4081,4.5126,
5.604105,1.2493,1.0249,1.5367,12.1971,8.5341,21.6295,1.4104,1.4081,4.5126,
5.604775,1.2493,1.0249,1.5367,11.9243,8.5421,21.2421,1.4104,1.4081,4.5126,
5.605583,1.2493,1.0249,1.5367,11.7502,8.1238,20.9806,1.4104,1.4081,4.5126,
5.606245,1.2122,1.0127,1.5636,11.7502,8.1238,20.9806,1.4104,1.4081,4.5126,
5.608410,1.1828,1.0030,1.5968,11.7502,8.1238,20.9806,1.4104,1.4081,4.5126,
5.612685,1.1677,1.0020,1.6325,11.7502,8.1238,20.9806,1.4104,1.4081,4.5126,
5.613899,1.1633,0.9991,1.6706,11.7502,8.1238,20.9806,1.4104,1.4081,4.5126,
5.615863,1.1642,1.0030,1.7127,11.7502,8.1238,20.9806,1.4104,1.4081,4.5126,
5.618400,1.1740,1.0010,1.7444,11.7502,8.1238,20.9806,1.4104,1.4081,4.5126,
5.621104,1.1740,1.0010,1.7444,11.7502,8.1238,20.9806,2.3120,0.4542,2.0415,
5.621867,1.1818,0.9947,1.7753,11.7502,8.1238,20.9806,2.3120,0.4542,2.0415,
5.624081,1.1838,0.9859,1.8007,11.7502,8.1238,20.9806,2.3120,0.4542,2.0415,
5.625718,1.1911,0.9776,1.8251,11.7502,8.1238,20.9806,2.3120,0.4542,2.0415,
5.628587,1.1896,0.9673,1.8466,11.7502,8.1238,20.9806,2.3120,0.4542,2.0415,
5.631586,1.1906,0.9673,1.8623,11.7502,8.1238,20.9806,2.3120,0.4542,2.0415,
5.635007,1.1877,0.9697,1.8784,11.7502,8.1238,20.9806,2.3120,0.4542,2.0415,
5.636305,1.1838,0.9707,1.8911,11.7502,8.1238,20.9806,2.3120,0.4542,2.0415,
5.638896,1.1769,0.9746,1.9126,11.7502,8.1238,20.9806,2.3120,0.4542,2.0415,
5.641761,1.1789,0.9712,1.9361,11.7502,8.1238,20.9806,2.3120,0.4542,2.0415,
5.643554,1.1721,0.9663,1.9566,11.7502,8.1238,20.9806,2.3120,0.4542,2.0415,
5.646471,1.1716,0.9634,1.9801,11.7502,8.1238,20.9806,2.3120,0.4542,2.0415,
5.649301,1.1750,0.9551,2.0036,11.7502,8.1238,20.9806,2.3120,0.4542,2.0415,
5.650913,1.1808,0.9492,2.0148,11.7502,8.1238,20.9806,2.3120,0.4542,2.0415,
5.654605,1.1867,0.9414,2.0265,11.7502,8.1238,20.9806,2.3120,0.4542,2.0415,
5.656831,1.2009,0.9262,2.0383,11.7502,8.1238,20.9806,2.3120,0.4542,2.0415,
5.658450,1.2141,0.9193,2.0348,11.7502,8.1238,20.9806,2.3120,0.4542,2.0415,
5.661385,1.2210,0.9106,2.0255,11.7502,8.1238,20.9806,2.3120,0.4542,2.0415,
5.664002,1.2244,0.8964,2.0163,11.7502,8.1238,20.9806,2.3120,0.4542,2.0415,
5.674013,1.2244,0.8964,2.0163,13.9688,7.3846,4.5383,2.3120,0.4542,2.0415,
5.674776,1.2244,0.8964,2.0163,13.2097,6.4744,5.1735,2.3120,0.4542,2.0415,
5.703044,1.2244,0.8964,2.0163,13.2097,6.4744,5.1735,3.5487,-0.9350,1.5502,
5.762097,1.1269,0.7601,1.4567,13.2097,6.4744,5.1735,3.5487,-0.9350,1.5502,
5.763369,1.1269,0.7601,1.4567,5.8312,3.1280,11.1894,3.5487,-0.9350,1.5502,
5.764115,1.1269,0.7601,1.4567,4.8822,2.1182,12.8950,3.5487,-0.9350,1.5502,
5.782705,1.1269,0.7601,1.4567,4.8822,2.1182,12.8950,5.2030,-2.0074,1.3387,
5.822790,1.1269,0.7601,1.4567,4.8822,2.1182,12.8950,4.8212,-2.7902,0.6715,
5.832497,1.1269,0.7601,1.4567,3.4815,-0.4198,10.7804,4.8212,-2.7902,0.6715,
5.834287,1.1269,0.7601,1.4567,2.9925,-0.6803,13.0344,4.8212,-2.7902,0.6715,
5.835186,0.8474,0.5253,0.8313,2.9925,-0.6803,13.0344,4.8212,-2.7902,0.6715,
5.902997,0.4018,0.1527,0.5026,2.9925,-0.6803,13.0344,4.8212,-2.7902,0.6715,
5.905514,0.4018,0.1527,0.5026,2.9925,-0.6803,13.0344,3.7495,-3.1925,-0.3371,
5.906563,0.4018,0.1527,0.5026,0.2684,-2.9678,9.1076,3.7495,-3.1925,-0.3371,
5.973092,0.2479,-0.1662,0.1567,0.2684,-2.9678,9.1076,3.7495,-3.1925,-0.3371,
5.975112,0.2479,-0.1662,0.1567,-3.5166,-6.5073,7.8085,3.7495,-3.1925,-0.3371,
5.975954,0.2479,-0.1662,0.1567,-2.6417,-6.2113,9.5610,3.7495,-3.1925,-0.3371,
5.982615,0.2479,-0.1662,0.1567,-2.6417,-6.2113,9.5610,2.8488,-3.5510,-0.8744,
6.022828,0.2479,-0.1662,0.1567,-2.6417,-6.2113,9.5610,1.9594,-2.8368,-1.0840,
6.043215,0.1461,-0.3953,-0.1462,-2.6417,-6.2113,9.5610,1.9594,-2.8368,-1.0840,
6.044712,0.1461,-0.3953,-0.1462,-3.0781,-8.8470,7.6499,1.9594,-2.8368,-1.0840,
6.045650,0.1461,-0.3953,-0.1462,-2.0325,-8.4885,8.5014,1.9594,-2.8368,-1.0840,
6.102995,0.1461,-0.3953,-0.1462,-2.0325,-8.4885,8.5014,1.2640,-1.5374,-1.2399,
6.114089,-0.0634,-0.6682,-0.5422,-2.0325,-8.4885,8.5014,1.2640,-1.5374,-1.2399,
6.116142,-0.0634,-0.6682,-0.5422,-2.1430,-10.3528,6.0903,1.2640,-1.5374,-1.2399,
6.117691,-0.0634,-0.6682,-0.5422,-1.4532,-10.0303,6.3876,1.2640,-1.5374,-1.2399,
6.143009,-0.0634,-0.6682,-0.5422,-1.4532,-10.0303,6.3876,0.3841,-1.1852,-0.3743,
6.183924,0.1613,-0.8185,-0.7298,-1.4532,-10.0303,6.3876,0.3841,-1.1852,-0.3743,
6.186736,0.1613,-0.8185,-0.7298,-2.9859,-12.4130,2.6807,0.3841,-1.1852,-0.3743,
6.223736,0.1613,-0.8185,-0.7298,-2.9859,-12.4130,2.6807,-0.5715,-0.6454,0.3936,
6.254884,0.2514,-0.7724,-0.6146,-2.9859,-12.4130,2.6807,-0.5715,-0.6454,0.3936,
6.257190,0.2514,-0.7724,-0.6146,-0.5976,-13.6145,0.9063,-0.5715,-0.6454,0.3936,
6.258272,0.2514,-0.7724,-0.6146,-0.5029,-13.6327,0.7383,-0.5715,-0.6454,0.3936,
6.303866,0.2514,-0.7724,-0.6146,-0.5029,-13.6327,0.7383,-2.4400,-1.6281,1.0564,
6.324117,0.4361,-0.4383,0.0197,-0.5029,-13.6327,0.7383,-2.4400,-1.6281,1.0564,
6.326294,0.4361,-0.4383,0.0197,0.6010,-13.5681,1.4266,-2.4400,-1.6281,1.0564,
6.327292,0.4361,-0.4383,0.0197,0.8161,-14.0615,0.8176,-2.4400,-1.6281,1.0564,
6.343964,0.4361,-0.4383,0.0197,0.8161,-14.0615,0.8176,-3.4861,-1.8128,1.4608,
6.394488,0.6026,-0.1348,0.4023,0.8161,-14.0615,0.8176,-3.4861,-1.8128,1.4608,
6.396947,0.6026,-0.1348,0.4023,2.6436,-11.4032,6.0768,-3.4861,-1.8128,1.4608,
6.397968,0.6026,-0.1348,0.4023,2.6592,-12.1111,4.6958,-3.4861,-1.8128,1.4608,
6.424432,0.6026,-0.1348,0.4023,2.6592,-12.1111,4.6958,-5.8918,-1.5841,0.3856,
6.464393,0.2981,0.3628,1.6368,2.6592,-12.1111,4.6958,-5.8918,-1.5841,0.3856,
6.466042,0.2981,0.3628,1.6368,4.4287,-9.8880,6.2281,-5.8918,-1.5841,0.3856,
6.505654,0.2981,0.3628,1.6368,4.4287,-9.8880,6.2281,-6.6204,-2.8267,0.7165,
6.535062,0.8234,1.0679,2.3231,4.4287,-9.8880,6.2281,-6.6204,-2.8267,0.7165,
6.537522,0.8234,1.0679,2.3231,1.3964,-5.2176,15.8304,-6.6204,-2.8267,0.7165,
6.538293,0.8234,1.0679,2.3231,0.7172,-4.7288,13.6720,-6.6204,-2.8267,0.7165,
6.545408,0.8234,1.0679,2.3231,0.7172,-4.7288,13.6720,-5.7115,-1.9414,1.5311,
6.606052,0.8432,1.3505,2.0954,0.7172,-4.7288,13.6720,-5.7115,-1.9414,1.5311,
6.608593,0.8432,1.3505,2.0954,5.0600,3.0151,18.4769,-5.7115,-1.9414,1.5311,
6.609983,0.8432,1.3505,2.0954,4.4772,4.1076,16.9071,-5.7115,-1.9414,1.5311,
6.624657,0.8432,1.3505,2.0954,4.4772,4.1076,16.9071,-5.0003,-0.9756,0.5310,
6.675730,0.2422,1.3082,1.9545,4.4772,4.1076,16.9071,-5.0003,-0.9756,0.5310,
6.678737,0.2422,1.3082,1.9545,4.3154,8.0282,13.4560,-5.0003,-0.9756,0.5310,
6.679487,0.2422,1.3082,1.9545,4.2129,8.9523,12.5816,-5.0003,-0.9756,0.5310,
6.705488,0.2422,1.3082,1.9545,4.2129,8.9523,12.5816,-3.5712,-0.7128,-0.5766,
6.745402,0.2422,1.3082,1.9545,4.2129,8.9523,12.5816,-1.3748,-1.5269,-0.0229,
6.746954,0.1966,1.1414,1.5761,4.2129,8.9523,12.5816,-1.3748,-1.5269,-0.0229,
6.747740,0.1966,1.1414,1.5761,-1.9912,9.1524,10.8275,-1.3748,-1.5269,-0.0229,
6.816071,0.1018,0.9057,1.2532,-1.9912,9.1524,10.8275,-1.3748,-1.5269,-0.0229,
6.818169,0.1018,0.9057,1.2532,-2.9020,7.8196,7.1034,-1.3748,-1.5269,-0.0229,
6.818987,0.1018,0.9057,1.2532,-2.9835,7.9437,6.9626,-1.3748,-1.5269,-0.0229,
6.825566,0.1018,0.9057,1.2532,-2.9835,7.9437,6.9626,-0.6760,-0.2433,-0.2754,
6.886367,0.1914,0.6440,0.9811,-2.9835,7.9437,6.9626,-0.6760,-0.2433,-0.2754,
6.888336,0.1914,0.6440,0.9811,-3.8375,5.6568,3.6862,-0.6760,-0.2433,-0.2754,
6.889552,0.1914,0.6440,0.9811,-3.7388,5.5055,3.6268,-0.6760,-0.2433,-0.2754,
6.906214,0.1914,0.6440,0.9811,-3.7388,5.5055,3.6268,0.2521,0.0358,-0.0329,
6.946284,0.1914,0.6440,0.9811,-3.7388,5.5055,3.6268,0.5216,-0.0129,-0.0071,
6.959454,0.3446,0.4900,0.8989,-3.7388,5.5055,3.6268,0.5216,-0.0129,-0.0071,
6.961391,0.3446,0.4900,0.8989,-2.8490,2.7036,1.0399,0.5216,-0.0129,-0.0071,
6.962182,0.3446,0.4900,0.8989,-2.8023,2.4823,1.0993,0.5216,-0.0129,-0.0071,
7.026886,0.3446,0.4900,0.8989,-1.2716,0.7290,0.3910,0.5216,-0.0129,-0.0071,
7.029163,0.5215,0.4395,0.8011,-1.2716,0.7290,0.3910,0.5216,-0.0129,-0.0071,
7.029888,0.5215,0.4395,0.8011,-1.2716,0.7290,0.3910,0.7228,0.0704,-0.0192,
7.097008,0.5215,0.4395,0.8011,0.4948,-0.0247,-0.4523,0.7228,0.0704,-0.0192,
7.098955,0.5215,0.4395,0.8011,0.6247,-0.2792,-0.3832,0.7228,0.0704,-0.0192,
7.099775,0.4737,0.3802,0.6881,0.6247,-0.2792,-0.3832,0.7228,0.0704,-0.0192,
7.106570,0.4737,0.3802,0.6881,0.6247,-0.2792,-0.3832,0.5947,0.2640,-0.2494,
7.146939,0.4737,0.3802,0.6881,0.6247,-0.2792,-0.3832,0.3406,0.0369,-0.1024,
7.167624,0.4294,0.3725,0.7241,0.6247,-0.2792,-0.3832,0.3406,0.0369,-0.1024,
7.170416,0.4294,0.3725,0.7241,0.2605,-1.0336,-1.4177,0.3406,0.0369,-0.1024,
7.171631,0.4294,0.3725,0.7241,0.2796,-1.1374,-1.3349,0.3406,0.0369,-0.1024,
7.227353,0.4294,0.3725,0.7241,0.2796,-1.1374,-1.3349,0.2410,0.0197,0.1286,
7.237345,0.4375,0.4205,0.7531,0.2796,-1.1374,-1.3349,0.2410,0.0197,0.1286,
7.239202,0.4375,0.4205,0.7531,-0.1320,-1.2648,-0.9317,0.2410,0.0197,0.1286,
7.239947,0.4375,0.4205,0.7531,-0.1774,-1.2842,-0.8653,0.2410,0.0197,0.1286,
7.308235,0.4375,0.4205,0.7531,-0.1455,-0.8281,-0.5263,0.2410,0.0197,0.1286,
7.310382,0.4732,0.4712,0.7540,-0.1455,-0.8281,-0.5263,0.2410,0.0197,0.1286,
7.310990,0.4732,0.4712,0.7540,-0.1455,-0.8281,-0.5263,0.1880,-0.0097,0.1620,
7.347546,0.4732,0.4712,0.7540,-0.1455,-0.8281,-0.5263,0.0796,0.0892,-0.1181,
7.378246,0.4218,0.4791,0.7362,-0.1455,-0.8281,-0.5263,0.0796,0.0892,-0.1181,
7.380223,0.4218,0.4791,0.7362,0.2140,-0.3658,-0.4909,0.0796,0.0892,-0.1181,
7.381760,0.4218,0.4791,0.7362,0.2662,-0.4055,-0.4847,0.0796,0.0892,-0.1181,
7.428170,0.4218,0.4791,0.7362,0.2662,-0.4055,-0.4847,0.0161,0.0422,-0.0776,
7.448438,0.4185,0.4941,0.7642,0.2662,-0.4055,-0.4847,0.0161,0.0422,-0.0776,
7.450462,0.4185,0.4941,0.7642,-0.1866,-0.3567,-0.6529,0.0161,0.0422,-0.0776,
7.451342,0.4185,0.4941,0.7642,-0.1699,-0.3568,-0.6455,0.0161,0.0422,-0.0776,
7.508427,0.4185,0.4941,0.7642,-0.1699,-0.3568,-0.6455,0.0306,-0.0007,0.0719,
7.518366,0.4632,0.5089,0.7534,-0.1699,-0.3568,-0.6455,0.0306,-0.0007,0.0719,
7.519802,0.4632,0.5089,0.7534,-0.2118,-0.2012,-0.3615,0.0306,-0.0007,0.0719,
7.520410,0.4632,0.5089,0.7534,-0.2281,-0.2033,-0.3411,0.0306,-0.0007,0.0719,
7.548549,0.4632,0.5089,0.7534,-0.2281,-0.2033,-0.3411,0.0579,-0.0052,0.0554,
7.573189,0.5038,0.5151,0.7750,-0.2281,-0.2033,-0.3411,0.0579,-0.0052,0.0554,
7.578906,0.4642,0.5195,0.7696,-0.2281,-0.2033,-0.3411,0.0579,-0.0052,0.0554,
7.580479,0.4603,0.5224,0.7745,-0.2281,-0.2033,-0.3411,0.0579,-0.0052,0.0554,
7.582956,0.4549,0.5248,0.7721,-0.2281,-0.2033,-0.3411,0.0579,-0.0052,0.0554,
7.585906,0.4471,0.5263,0.7735,-0.2281,-0.2033,-0.3411,0.0579,-0.0052,0.0554,
7.588195,0.4422,0.5239,0.7760,-0.2281,-0.2033,-0.3411,0.0579,-0.0052,0.0554,
7.590784,0.4353,0.5268,0.7779,-0.2281,-0.2033,-0.3411,0.0579,-0.0052,0.0554,
7.592644,0.4270,0.5239,0.7711,-0.2281,-0.2033,-0.3411,0.0579,-0.0052,0.0554,
7.595710,0.4148,0.5219,0.7706,-0.2281,-0.2033,-0.3411,0.0579,-0.0052,0.0554,
7.598109,0.4084,0.5234,0.7652,-0.2281,-0.2033,-0.3411,0.0579,-0.0052,0.0554,
7.601651,0.4006,0.5214,0.7608,-0.2281,-0.2033,-0.3411,0.0579,-0.0052,0.0554,
7.603406,0.3874,0.5170,0.7603,-0.2281,-0.2033,-0.3411,0.0579,-0.0052,0.0554,
7.605675,0.3845,0.5165,0.7559,-0.2281,-0.2033,-0.3411,0.0579,-0.0052,0.0554,
7.607965,0.3698,0.5156,0.7520,-0.2281,-0.2033,-0.3411,0.0579,-0.0052,0.0554,
7.611647,0.3620,0.5180,0.7525,-0.2281,-0.2033,-0.3411,0.0579,-0.0052,0.0554,
7.613332,0.3590,0.5151,0.7530,-0.2281,-0.2033,-0.3411,0.0579,-0.0052,0.0554,
7.616008,0.3551,0.5131,0.7520,-0.2281,-0.2033,-0.3411,0.0579,-0.0052,0.0554,
7.618107,0.3454,0.5102,0.7501,-0.2281,-0.2033,-0.3411,0.0579,-0.0052,0.0554,
7.620449,0.3429,0.5097,0.7540,-0.2281,-0.2033,-0.3411,0.0579,-0.0052,0.0554,
7.623283,0.3405,0.5063,0.7618,-0.2281,-0.2033,-0.3411,0.0579,-0.0052,0.0554,
7.625528,0.3361,0.5058,0.7677,-0.2281,-0.2033,-0.3411,0.0579,-0.0052,0.0554,
7.628117,0.3361,0.5058,0.7677,-0.2281,-0.2033,-0.3411,-0.0385,0.1088,-0.2133,
7.629030,0.3356,0.5073,0.7701,-0.2281,-0.2033,-0.3411,-0.0385,0.1088,-0.2133,
7.630734,0.3341,0.5063,0.7745,-0.2281,-0.2033,-0.3411,-0.0385,0.1088,-0.2133,
7.633928,0.3356,0.5014,0.7760,-0.2281,-0.2033,-0.3411,-0.0385,0.1088,-0.2133,
7.635381,0.3356,0.4999,0.7814,-0.2281,-0.2033,-0.3411,-0.0385,0.1088,-0.2133,
7.637954,0.3317,0.4985,0.7843,-0.2281,-0.2033,-0.3411,-0.0385,0.1088,-0.2133,
7.641171,0.3317,0.4985,0.7843,0.1955,-0.0654,-0.4269,-0.0385,0.1088,-0.2133,
7.642488,0.3317,0.4985,0.7843,0.2227,-0.0745,-0.4301,-0.0385,0.1088,-0.2133,
7.643199,0.3317,0.4985,0.7843,0.3358,-0.1097,-0.4628,-0.0385,0.1088,-0.2133,
7.643829,0.3278,0.4965,0.7863,0.3358,-0.1097,-0.4628,-0.0385,0.1088,-0.2133,
7.644432,0.3278,0.4950,0.7848,0.3358,-0.1097,-0.4628,-0.0385,0.1088,-0.2133,
7.647019,0.3272,0.4941,0.7902,0.3358,-0.1097,-0.4628,-0.0385,0.1088,-0.2133,
7.648338,0.3302,0.4907,0.7912,0.3358,-0.1097,-0.4628,-0.0385,0.1088,-0.2133,
7.650639,0.3293,0.4911,0.7941,0.3358,-0.1097,-0.4628,-0.0385,0.1088,-0.2133,
7.653138,0.3307,0.4887,0.7956,0.3358,-0.1097,-0.4628,-0.0385,0.1088,-0.2133,
7.656644,0.3322,0.4897,0.7926,0.3358,-0.1097,-0.4628,-0.0385,0.1088,-0.2133,
7.658015,0.3312,0.4916,0.7985,0.3358,-0.1097,-0.4628,-0.0385,0.1088,-0.2133,
7.660657,0.3341,0.4946,0.7936,0.3358,-0.1097,-0.4628,-0.0385,0.1088,-0.2133,
7.664493,0.3337,0.4955,0.7853,0.3358,-0.1097,-0.4628,-0.0385,0.1088,-0.2133,
7.670340,0.3341,0.4882,0.7858,0.3358,-0.1097,-0.4628,-0.0385,0.1088,-0.2133,
7.671093,0.3385,0.4911,0.7848,0.3358,-0.1097,-0.4628,-0.0385,0.1088,-0.2133,
7.671805,0.3380,0.4897,0.7794,0.3358,-0.1097,-0.4628,-0.0385,0.1088,-0.2133,
7.673862,0.3376,0.4887,0.7750,0.3358,-0.1097,-0.4628,-0.0385,0.1088,-0.2133,
7.676372,0.3410,0.4955,0.7750,0.3358,-0.1097,-0.4628,-0.0385,0.1088,-0.2133,
7.680093,0.3420,0.4950,0.7633,0.3358,-0.1097,-0.4628,-0.0385,0.1088,-0.2133,
7.681180,0.3429,0.4926,0.7598,0.3358,-0.1097,-0.4628,-0.0385,0.1088,-0.2133,
7.684097,0.3434,0.4936,0.7559,0.3358,-0.1097,-0.4628,-0.0385,0.1088,-0.2133,
7.686024,0.3507,0.4902,0.7486,0.3358,-0.1097,-0.4628,-0.0385,0.1088,-0.2133,
7.688935,0.3512,0.4926,0.7452,0.3358,-0.1097,-0.4628,-0.0385,0.1088,-0.2133,
7.693450,0.3532,0.4926,0.7423,0.3358,-0.1097,-0.4628,-0.0385,0.1088,-0.2133,
7.696339,0.3581,0.4941,0.7345,0.3358,-0.1097,-0.4628,-0.0385,0.1088,-0.2133,
7.711413,0.3581,0.4941,0.7345,0.3358,-0.1097,-0.4628,-0.0063,0.0362,-0.2128,
7.750623,0.3581,0.4941,0.7345,0.3358,-0.1097,-0.4628,0.0471,-0.0483,0.0972,
7.799813,0.3977,0.5402,0.7974,0.3358,-0.1097,-0.4628,0.0471,-0.0483,0.0972,
7.802477,0.3977,0.5402,0.7974,-0.3367,-0.0914,-0.3353,0.0471,-0.0483,0.0972,
7.803414,0.3977,0.5402,0.7974,-0.3457,-0.1128,-0.3070,0.0471,-0.0483,0.0972,
7.804244,0.3977,0.5402,0.7974,-0.3781,-0.1053,-0.2853,0.0471,-0.0483,0.0972,
7.805267,0.3977,0.5402,0.7974,-0.3916,-0.0712,-0.2912,0.0471,-0.0483,0.0972,
7.829695,0.3977,0.5402,0.7974,-0.3916,-0.0712,-0.2912,-0.0301,0.0521,0.0869,
7.870030,0.4631,0.7152,1.0080,-0.3916,-0.0712,-0.2912,-0.0301,0.0521,0.0869,
7.873204,0.4631,0.7152,1.0080,-0.2637,0.1943,-0.0150,-0.0301,0.0521,0.0869,
7.909582,0.4631,0.7152,1.0080,-0.2637,0.1943,-0.0150,0.1399,0.2156,-0.0150,
7.940411,0.6275,1.0384,1.2621,-0.2637,0.1943,-0.0150,0.1399,0.2156,-0.0150,
7.942352,0.6275,1.0384,1.2621,0.4199,1.8515,2.0063,0.1399,0.2156,-0.0150,
7.943336,0.6275,1.0384,1.2621,0.5814,1.6869,1.9753,0.1399,0.2156,-0.0150,
7.950297,0.6275,1.0384,1.2621,0.5814,1.6869,1.9753,0.9016,0.7703,-0.1200,
8.010121,0.8721,1.3304,1.1587,0.5814,1.6869,1.9753,0.9016,0.7703,-0.1200,
8.012364,0.8721,1.3304,1.1587,2.4399,4.4427,4.4838,0.9016,0.7703,-0.1200,
8.013145,0.8721,1.3304,1.1587,2.8001,3.7483,4.7127,0.9016,0.7703,-0.1200,
8.030494,0.8721,1.3304,1.1587,2.8001,3.7483,4.7127,2.2387,0.9443,-0.4816,
8.082392,0.8053,1.3333,1.2534,2.8001,3.7483,4.7127,2.2387,0.9443,-0.4816,
8.084386,0.8053,1.3333,1.2534,5.5286,5.6660,4.2367,2.2387,0.9443,-0.4816,
8.085206,0.8053,1.3333,1.2534,5.9813,4.6772,4.9879,2.2387,0.9443,-0.4816,
8.110633,0.8053,1.3333,1.2534,5.9813,4.6772,4.9879,2.8574,0.2744,-1.6088,
8.150693,0.8053,1.3333,1.2534,5.9813,4.6772,4.9879,3.8363,-0.2976,-2.4335,
8.152680,0.3354,1.1588,0.8796,5.9813,4.6772,4.9879,3.8363,-0.2976,-2.4335,
8.153550,0.3354,1.1588,0.8796,6.0411,3.6741,6.9772,3.8363,-0.2976,-2.4335,
8.221890,0.0106,0.9488,0.7448,6.0411,3.6741,6.9772,3.8363,-0.2976,-2.4335,
8.224199,0.0106,0.9488,0.7448,2.3127,1.0893,4.8112,3.8363,-0.2976,-2.4335,
8.225128,0.0106,0.9488,0.7448,3.2562,0.5960,6.2120,3.8363,-0.2976,-2.4335,
8.230668,0.0106,0.9488,0.7448,3.2562,0.5960,6.2120,3.4154,-1.1598,-2.5245,
8.291227,-0.1171,0.6691,0.4444,3.2562,0.5960,6.2120,3.4154,-1.1598,-2.5245,
8.293183,-0.1171,0.6691,0.4444,1.0032,-1.6178,6.2084,3.4154,-1.1598,-2.5245,
8.294001,-0.1171,0.6691,0.4444,1.8459,-1.5367,7.4025,3.4154,-1.1598,-2.5245,
8.310843,-0.1171,0.6691,0.4444,1.8459,-1.5367,7.4025,3.1259,-1.3040,-1.9777,
8.350937,-0.1171,0.6691,0.4444,1.8459,-1.5367,7.4025,2.8993,-1.3720,-1.3849,
8.361603,-0.1383,0.3785,0.1638,1.8459,-1.5367,7.4025,2.8993,-1.3720,-1.3849,
8.364003,-0.1383,0.3785,0.1638,1.2753,-4.0055,5.4777,2.8993,-1.3720,-1.3849,
8.364963,-0.1383,0.3785,0.1638,1.9004,-3.6014,6.4305,2.8993,-1.3720,-1.3849,
8.431985,-0.1383,0.3785,0.1638,2.3861,-5.9258,4.3078,2.8993,-1.3720,-1.3849,
8.433978,-0.3222,0.0850,0.0752,2.3861,-5.9258,4.3078,2.8993,-1.3720,-1.3849,
8.434812,-0.3222,0.0850,0.0752,2.3861,-5.9258,4.3078,2.0197,-1.4470,-1.4140,
8.502420,-0.4573,0.0617,-0.0057,2.3861,-5.9258,4.3078,2.0197,-1.4470,-1.4140,
8.504454,-0.4573,0.0617,-0.0057,1.2384,-8.2375,3.8035,2.0197,-1.4470,-1.4140,
8.505517,-0.4573,0.0617,-0.0057,1.7290,-7.7150,4.0617,2.0197,-1.4470,-1.4140,
8.513622,-0.4573,0.0617,-0.0057,1.7290,-7.7150,4.0617,1.5963,-1.1526,-0.9623,
8.552044,-0.4573,0.0617,-0.0057,1.7290,-7.7150,4.0617,1.9788,0.0541,-0.4067,
8.571989,-0.4350,0.0634,-0.5864,1.7290,-7.7150,4.0617,1.9788,0.0541,-0.4067,
8.574149,-0.4350,0.0634,-0.5864,0.6793,-7.4325,3.7041,1.9788,0.0541,-0.4067,
8.574742,-0.4350,0.0634,-0.5864,0.7400,-6.9097,4.3132,1.9788,0.0541,-0.4067,
8.632748,-0.4350,0.0634,-0.5864,0.7400,-6.9097,4.3132,1.2811,0.5546,-0.4503,
8.643293,-0.5186,0.0436,-0.8858,0.7400,-6.9097,4.3132,1.2811,0.5546,-0.4503,
8.644773,-0.5186,0.0436,-0.8858,0.9304,-6.3926,-0.7385,1.2811,0.5546,-0.4503,
8.645732,-0.5186,0.0436,-0.8858,0.9701,-6.0142,-0.4202,1.2811,0.5546,-0.4503,
8.712697,-0.6838,-0.1767,-0.5157,0.9701,-6.0142,-0.4202,1.2811,0.5546,-0.4503,
8.715522,-0.6838,-0.1767,-0.5157,0.3410,-5.9594,-3.3141,1.2811,0.5546,-0.4503,
8.716305,-0.6838,-0.1767,-0.5157,0.3410,-5.9594,-3.3141,-0.3390,0.3541,-1.0166,
8.752420,-0.6838,-0.1767,-0.5157,0.3410,-5.9594,-3.3141,-0.7057,1.0028,-1.2643,
8.783557,-0.6838,-0.1767,-0.5157,-1.1268,-7.8520,0.3298,-0.7057,1.0028,-1.2643,
8.786879,-1.0431,-0.4689,-0.3516,-1.1268,-7.8520,0.3298,-0.7057,1.0028,-1.2643,
8.787822,-1.0431,-0.4689,-0.3516,-1.0290,-7.5935,0.3850,-0.7057,1.0028,-1.2643,
8.833180,-1.0431,-0.4689,-0.3516,-1.0290,-7.5935,0.3850,-1.7053,2.1628,-1.0483,
8.853370,-1.1007,-0.6164,0.0848,-1.0290,-7.5935,0.3850,-1.7053,2.1628,-1.0483,
8.854769,-1.1007,-0.6164,0.0848,-4.5987,-10.3383,2.0278,-1.7053,2.1628,-1.0483,
8.856284,-1.1007,-0.6164,0.0848,-4.8847,-10.4160,2.0854,-1.7053,2.1628,-1.0483,
8.913118,-1.1007,-0.6164,0.0848,-4.8847,-10.4160,2.0854,-2.5428,3.1510,-0.2987,
8.924211,-1.0533,-0.7106,0.7443,-4.8847,-10.4160,2.0854,-2.5428,3.1510,-0.2987,
8.926089,-1.0533,-0.7106,0.7443,-5.9517,-12.1223,6.2958,-2.5428,3.1510,-0.2987,
8.927350,-1.0533,-0.7106,0.7443,-6.7606,-12.8069,5.8466,-2.5428,3.1510,-0.2987,
8.953443,-1.0533,-0.7106,0.7443,-6.7606,-12.8069,5.8466,-3.9109,3.0575,1.8639,
8.994455,0.1977,-0.2450,1.2943,-6.7606,-12.8069,5.8466,-3.9109,3.0575,1.8639,
8.997468,0.1977,-0.2450,1.2943,-7.3938,-14.5379,11.3594,-3.9109,3.0575,1.8639,
9.033683,0.1977,-0.2450,1.2943,-7.3938,-14.5379,11.3594,-4.8543,3.1696,2.6856,
9.064369,0.5638,0.2830,1.9024,-7.3938,-14.5379,11.3594,-4.8543,3.1696,2.6856,
9.067783,0.5638,0.2830,1.9024,3.4571,-10.6689,15.3545,-4.8543,3.1696,2.6856,
9.069005,0.5638,0.2830,1.9024,2.3634,-10.9803,13.3243,-4.8543,3.1696,2.6856,
9.114018,0.5638,0.2830,1.9024,2.3634,-10.9803,13.3243,-6.1459,3.2807,2.5064,
9.134587,1.1354,0.7111,2.4575,2.3634,-10.9803,13.3243,-6.1459,3.2807,2.5064,
9.137056,1.1354,0.7111,2.4575,5.0584,-5.6109,16.8899,-6.1459,3.2807,2.5064,
9.138056,1.1354,0.7111,2.4575,4.3533,-4.7086,14.4986,-6.1459,3.2807,2.5064,
9.153898,1.1354,0.7111,2.4575,4.3533,-4.7086,14.4986,-6.7919,1.9295,2.8869,
9.204197,1.7810,1.4704,3.0970,4.3533,-4.7086,14.4986,-6.7919,1.9295,2.8869,
9.206122,1.7810,1.4704,3.0970,9.3689,1.0694,17.6696,-6.7919,1.9295,2.8869,
9.206855,1.7810,1.4704,3.0970,8.5507,2.5444,16.4612,-6.7919,1.9295,2.8869,
9.234510,1.7810,1.4704,3.0970,8.5507,2.5444,16.4612,-3.1134,0.6825,4.2551,
9.274551,1.9702,1.6561,1.8369,8.5507,2.5444,16.4612,-3.1134,0.6825,4.2551,
9.276265,1.9702,1.6561,1.8369,14.1817,10.7314,22.0462,-3.1134,0.6825,4.2551,
9.314956,1.9702,1.6561,1.8369,14.1817,10.7314,22.0462,1.0200,1.2040,3.3880,
9.345198,1.3313,1.0350,0.9477,14.1817,10.7314,22.0462,1.0200,1.2040,3.3880,
9.347940,1.3313,1.0350,0.9477,15.6865,12.4717,9.5119,1.0200,1.2040,3.3880,
9.348932,1.3313,1.0350,0.9477,15.4316,12.0272,9.4593,1.0200,1.2040,3.3880,
9.356107,1.3313,1.0350,0.9477,15.4316,12.0272,9.4593,1.4418,0.7937,1.5875,
9.415844,0.9385,0.7054,1.2700,15.4316,12.0272,9.4593,1.4418,0.7937,1.5875,
9.418597,0.9385,0.7054,1.2700,9.0248,5.5925,0.8570,1.4418,0.7937,1.5875,
9.419561,0.9385,0.7054,1.2700,8.6077,5.1624,1.1693,1.4418,0.7937,1.5875,
9.435133,0.9385,0.7054,1.2700,8.6077,5.1624,1.1693,1.9092,-0.4210,1.3836,
9.485494,1.2239,0.9770,1.3403,8.6077,5.1624,1.1693,1.9092,-0.4210,1.3836,
9.488476,1.2239,0.9770,1.3403,4.0578,1.4809,4.9143,1.9092,-0.4210,1.3836,
9.489826,1.2239,0.9770,1.3403,3.3400,0.7571,5.9218,1.9092,-0.4210,1.3836,
9.515381,1.2239,0.9770,1.3403,3.3400,0.7571,5.9218,3.5864,-1.2602,1.3009,
9.555246,1.2239,0.9770,1.3403,3.3400,0.7571,5.9218,3.9559,-1.3205,0.2160,
9.556613,1.2239,0.9770,1.3403,5.6176,2.5722,7.8196,3.9559,-1.3205,0.2160,
9.570263,0.9844,1.1042,0.9686,5.6176,2.5722,7.8196,3.9559,-1.3205,0.2160,
9.575784,0.9022,1.0108,0.8166,5.6176,2.5722,7.8196,3.9559,-1.3205,0.2160,
9.579156,0.8924,1.0069,0.8039,5.6176,2.5722,7.8196,3.9559,-1.3205,0.2160,
9.580597,0.8709,0.9966,0.7774,5.6176,2.5722,7.8196,3.9559,-1.3205,0.2160,
9.583197,0.8509,0.9721,0.7545,5.6176,2.5722,7.8196,3.9559,-1.3205,0.2160,
9.585125,0.8323,0.9521,0.7320,5.6176,2.5722,7.8196,3.9559,-1.3205,0.2160,
9.587387,0.8161,0.9311,0.7095,5.6176,2.5722,7.8196,3.9559,-1.3205,0.2160,
9.589945,0.8015,0.9154,0.6875,5.6176,2.5722,7.8196,3.9559,-1.3205,0.2160,
9.592582,0.7849,0.8998,0.6655,5.6176,2.5722,7.8196,3.9559,-1.3205,0.2160,
9.595722,0.7712,0.8861,0.6479,5.6176,2.5722,7.8196,3.9559,-1.3205,0.2160,
9.597625,0.7580,0.8641,0.6337,5.6176,2.5722,7.8196,3.9559,-1.3205,0.2160,
9.600371,0.7462,0.8490,0.6078,5.6176,2.5722,7.8196,3.9559,-1.3205,0.2160,
9.602541,0.7379,0.8304,0.5946,5.6176,2.5722,7.8196,3.9559,-1.3205,0.2160,
9.605195,0.7257,0.8054,0.5834,5.6176,2.5722,7.8196,3.9559,-1.3205,0.2160,
9.607690,0.7101,0.7844,0.5736,5.6176,2.5722,7.8196,3.9559,-1.3205,0.2160,
9.611520,0.6959,0.7654,0.5638,5.6176,2.5722,7.8196,3.9559,-1.3205,0.2160,
9.613141,0.6802,0.7473,0.5521,5.6176,2.5722,7.8196,3.9559,-1.3205,0.2160,
9.615080,0.6558,0.7316,0.5433,5.6176,2.5722,7.8196,3.9559,-1.3205,0.2160,
9.617432,0.6377,0.7116,0.5364,5.6176,2.5722,7.8196,3.9559,-1.3205,0.2160,
9.619831,0.6211,0.6906,0.5320,5.6176,2.5722,7.8196,3.9559,-1.3205,0.2160,
9.622898,0.6011,0.6701,0.5272,5.6176,2.5722,7.8196,3.9559,-1.3205,0.2160,
9.624897,0.5815,0.6505,0.5228,5.6176,2.5722,7.8196,3.9559,-1.3205,0.2160,
9.627907,0.5644,0.6382,0.5184,5.6176,2.5722,7.8196,3.9559,-1.3205,0.2160,
9.630438,0.5585,0.6265,0.5159,5.6176,2.5722,7.8196,3.9559,-1.3205,0.2160,
9.634065,0.5453,0.6041,0.5228,5.6176,2.5722,7.8196,3.9559,-1.3205,0.2160,
9.635662,0.5424,0.5840,0.5262,5.6176,2.5722,7.8196,3.9559,-1.3205,0.2160,
9.636417,0.5424,0.5840,0.5262,5.6176,2.5722,7.8196,4.1221,-1.9924,-0.0896,
9.639355,0.5404,0.5664,0.5296,5.6176,2.5722,7.8196,4.1221,-1.9924,-0.0896,
9.640196,0.5404,0.5664,0.5296,4.1065,4.0991,5.5948,4.1221,-1.9924,-0.0896,
9.641515,0.5404,0.5664,0.5296,3.8364,3.5357,7.3051,4.1221,-1.9924,-0.0896,
9.642308,0.5404,0.5664,0.5296,3.7256,3.2419,9.2023,4.1221,-1.9924,-0.0896,
9.642975,0.5355,0.5518,0.5223,3.7256,3.2419,9.2023,4.1221,-1.9924,-0.0896,
9.643613,0.5306,0.5336,0.5159,3.7256,3.2419,9.2023,4.1221,-1.9924,-0.0896,
9.645981,0.5257,0.5121,0.5081,3.7256,3.2419,9.2023,4.1221,-1.9924,-0.0896,
9.647456,0.5140,0.4980,0.5002,3.7256,3.2419,9.2023,4.1221,-1.9924,-0.0896,
9.650015,0.4955,0.4735,0.4846,3.7256,3.2419,9.2023,4.1221,-1.9924,-0.0896,
9.652957,0.4749,0.4535,0.4651,3.7256,3.2419,9.2023,4.1221,-1.9924,-0.0896,
9.655956,0.4476,0.4359,0.4440,3.7256,3.2419,9.2023,4.1221,-1.9924,-0.0896,
9.657585,0.4231,0.4227,0.4211,3.7256,3.2419,9.2023,4.1221,-1.9924,-0.0896,
9.662498,0.4031,0.4080,0.3941,3.7256,3.2419,9.2023,4.1221,-1.9924,-0.0896,
9.663816,0.3820,0.3904,0.3683,3.7256,3.2419,9.2023,4.1221,-1.9924,-0.0896,
9.717821,0.3820,0.3904,0.3683,3.7256,3.2419,9.2023,3.7755,-2.6467,-0.4507,
9.756222,0.3820,0.3904,0.3683,3.7256,3.2419,9.2023,2.7937,-2.5980,-0.4426,
9.776275,0.2195,0.0209,0.0847,3.7256,3.2419,9.2023,2.7937,-2.5980,-0.4426,
9.777783,0.2195,0.0209,0.0847,0.1849,-0.7271,7.8008,2.7937,-2.5980,-0.4426,
9.778435,0.2195,0.0209,0.0847,0.6409,-0.5350,9.4602,2.7937,-2.5980,-0.4426,
9.779027,0.2195,0.0209,0.0847,1.1758,-0.2110,10.7704,2.7937,-2.5980,-0.4426,
9.837433,0.2195,0.0209,0.0847,1.1758,-0.2110,10.7704,1.8820,-2.4996,-0.5451,
9.847158,0.2122,-0.2233,-0.0581,1.1758,-0.2110,10.7704,1.8820,-2.4996,-0.5451,
9.849482,0.2122,-0.2233,-0.0581,-2.9182,-7.4646,6.6130,1.8820,-2.4996,-0.5451,
9.850471,0.2122,-0.2233,-0.0581,-2.2140,-7.0788,7.3214,1.8820,-2.4996,-0.5451,
9.877200,0.2122,-0.2233,-0.0581,-2.2140,-7.0788,7.3214,1.4180,-0.5871,-0.9612,
9.917643,0.0688,-0.6143,-0.5999,-2.2140,-7.0788,7.3214,1.4180,-0.5871,-0.9612,
9.919360,0.0688,-0.6143,-0.5999,-1.8212,-9.0924,6.3223,1.4180,-0.5871,-0.9612,
9.957475,0.0688,-0.6143,-0.5999,-1.8212,-9.0924,6.3223,0.9891,-0.6473,-0.1678,
9.988350,0.2143,-0.9349,-0.7285,-1.8212,-9.0924,6.3223,0.9891,-0.6473,-0.1678,
9.990582,0.2143,-0.9349,-0.7285,-2.8551,-12.3297,1.5164,0.9891,-0.6473,-0.1678,
9.992071,0.2143,-0.9349,-0.7285,-2.6151,-11.9258,1.7426,0.9891,-0.6473,-0.1678,
10.038082,0.2143,-0.9349,-0.7285,-2.6151,-11.9258,1.7426,-1.0070,-0.7418,0.1883,
10.058720,0.2143,-0.9349,-0.7285,-0.9734,-15.0308,0.3876,-1.0070,-0.7418,0.1883,
10.060570,0.3204,-0.9115,-0.5682,-0.9734,-15.0308,0.3876,-1.0070,-0.7418,0.1883,
10.061870,0.3204,-0.9115,-0.5682,-0.8221,-15.1872,0.1013,-1.0070,-0.7418,0.1883,
10.077471,0.3204,-0.9115,-0.5682,-0.8221,-15.1872,0.1013,-2.4531,-0.9552,0.5646,
10.128402,0.4012,-0.5814,-0.0427,-0.8221,-15.1872,0.1013,-2.4531,-0.9552,0.5646,
10.132252,0.4012,-0.5814,-0.0427,0.3359,-15.3263,1.1333,-2.4531,-0.9552,0.5646,
10.134820,0.4012,-0.5814,-0.0427,0.4790,-15.9536,0.2120,-2.4531,-0.9552,0.5646,
10.157773,0.4012,-0.5814,-0.0427,0.4790,-15.9536,0.2120,-4.3098,-1.7029,0.9604,
10.198657,0.4012,-0.5814,-0.0427,1.3082,-13.3265,4.1282,-4.3098,-1.7029,0.9604,
10.200262,0.7540,-0.0443,0.5102,1.3082,-13.3265,4.1282,-4.3098,-1.7029,0.9604,
10.238479,0.7540,-0.0443,0.5102,1.3082,-13.3265,4.1282,-5.0772,-2.6663,1.9820,
10.268347,0.7540,-0.0443,0.5102,4.4477,-8.3910,8.3176,-5.0772,-2.6663,1.9820,
10.271067,0.9980,0.2815,1.8456,4.4477,-8.3910,8.3176,-5.0772,-2.6663,1.9820,
10.271837,0.9980,0.2815,1.8456,4.1325,-8.7025,6.3030,-5.0772,-2.6663,1.9820,
10.283838,0.9980,0.2815,1.8456,4.1325,-8.7025,6.3030,-7.2672,-1.3861,0.0172,
10.338541,0.9541,0.5679,2.1285,4.1325,-8.7025,6.3030,-7.2672,-1.3861,0.0172,
10.340396,0.9541,0.5679,2.1285,6.4412,-5.4742,16.8426,-7.2672,-1.3861,0.0172,
10.341479,0.9541,0.5679,2.1285,5.9851,-4.8242,14.9893,-7.2672,-1.3861,0.0172,
10.358732,0.9541,0.5679,2.1285,5.9851,-4.8242,14.9893,-5.7875,-2.2582,0.8747,
10.408973,1.1977,0.8614,2.1559,5.9851,-4.8242,14.9893,-5.7875,-2.2582,0.8747,
10.411665,1.1977,0.8614,2.1559,4.8240,-0.9648,16.2391,-5.7875,-2.2582,0.8747,
10.412688,1.1977,0.8614,2.1559,3.8320,0.4285,15.2689,-5.7875,-2.2582,0.8747,
10.438752,1.1977,0.8614,2.1559,3.8320,0.4285,15.2689,-5.3324,-2.4945,1.4602,
10.478816,1.1977,0.8614,2.1559,3.8320,0.4285,15.2689,-5.0170,-0.6409,-0.6105,
10.480293,0.8003,1.3915,2.5496,3.8320,0.4285,15.2689,-5.0170,-0.6409,-0.6105,
10.481394,0.8003,1.3915,2.5496,5.4816,4.7203,14.8067,-5.0170,-0.6409,-0.6105,
10.549824,0.1564,1.3494,2.0645,5.4816,4.7203,14.8067,-5.0170,-0.6409,-0.6105,
10.551693,0.1564,1.3494,2.0645,1.4972,10.8654,17.8773,-5.0170,-0.6409,-0.6105,
10.552597,0.1564,1.3494,2.0645,1.5953,11.2251,17.2868,-5.0170,-0.6409,-0.6105,
10.558923,0.1564,1.3494,2.0645,1.5953,11.2251,17.2868,-1.5877,0.0724,-0.9803,
10.619943,0.3135,0.7979,0.9793,1.5953,11.2251,17.2868,-1.5877,0.0724,-0.9803,
10.622244,0.3135,0.7979,0.9793,-4.5259,10.6440,12.2328,-1.5877,0.0724,-0.9803,
10.623143,0.3135,0.7979,0.9793,-4.2800,10.1736,12.0017,-1.5877,0.0724,-0.9803,
10.639402,0.3135,0.7979,0.9793,-4.2800,10.1736,12.0017,0.6676,0.3591,-0.3941,
10.679686,0.3135,0.7979,0.9793,-4.2800,10.1736,12.0017,0.6916,0.2734,-0.1136,
10.692621,0.4118,0.3993,0.8658,-4.2800,10.1736,12.0017,0.6916,0.2734,-0.1136,
10.694486,0.4118,0.3993,0.8658,-2.5745,4.3476,1.3939,0.6916,0.2734,-0.1136,
10.695325,0.4118,0.3993,0.8658,-2.4288,4.0338,1.4064,0.6916,0.2734,-0.1136,
10.760757,0.4289,0.2601,0.6439,-2.4288,4.0338,1.4064,0.6916,0.2734,-0.1136,
10.763863,0.4289,0.2601,0.6439,-1.3970,-0.1450,0.3902,0.6916,0.2734,-0.1136,
10.765135,0.4289,0.2601,0.6439,-1.3970,-0.1450,0.3902,0.9253,0.1410,-0.0957,
10.830282,0.4473,0.3858,0.7136,-1.3970,-0.1450,0.3902,0.9253,0.1410,-0.0957,
10.831956,0.4473,0.3858,0.7136,-1.1359,-1.8307,-1.6209,0.9253,0.1410,-0.0957,
10.832715,0.4473,0.3858,0.7136,-0.9373,-1.9689,-1.6177,0.9253,0.1410,-0.0957,
10.839967,0.4473,0.3858,0.7136,-0.9373,-1.9689,-1.6177,0.4041,0.4220,-0.1162,
10.880091,0.4473,0.3858,0.7136,-0.9373,-1.9689,-1.6177,0.4079,0.2387,0.1325,
10.900260,0.5836,0.4457,0.6987,-0.9373,-1.9689,-1.6177,0.4079,0.2387,0.1325,
10.902222,0.5836,0.4457,0.6987,-0.6748,-0.8201,-0.9094,0.4079,0.2387,0.1325,
10.903045,0.5836,0.4457,0.6987,-0.6155,-0.9076,-0.8653,0.4079,0.2387,0.1325,
10.960932,0.5836,0.4457,0.6987,-0.6155,-0.9076,-0.8653,0.2172,0.3172,-0.0373,
10.970437,0.5102,0.4261,0.7192,-0.6155,-0.9076,-0.8653,0.2172,0.3172,-0.0373,
10.972393,0.5102,0.4261,0.7192,0.8122,-0.4206,-0.9955,0.2172,0.3172,-0.0373,
10.974215,0.5102,0.4261,0.7192,0.9054,-0.4651,-1.0132,0.2172,0.3172,-0.0373,
11.041863,0.5229,0.4631,0.7507,0.9054,-0.4651,-1.0132,0.2172,0.3172,-0.0373,
11.043835,0.5229,0.4631,0.7507,0.2189,-0.6916,-0.7932,0.2172,0.3172,-0.0373,
11.044911,0.5229,0.4631,0.7507,0.2189,-0.6916,-0.7932,0.1792,0.1450,0.0487,
11.081835,0.5229,0.4631,0.7507,0.2189,-0.6916,-0.7932,0.0626,0.2116,-0.1877,
11.113352,0.5229,0.4631,0.7507,0.3724,-0.3740,-0.4659,0.0626,0.2116,-0.1877,
11.116712,0.4488,0.4798,0.8103,0.3724,-0.3740,-0.4659,0.0626,0.2116,-0.1877,
11.118727,0.4488,0.4798,0.8103,0.4766,-0.4223,-0.4898,0.0626,0.2116,-0.1877,
11.163241,0.4488,0.4798,0.8103,0.4766,-0.4223,-0.4898,0.3294,0.1482,-0.1366,
11.182491,0.4488,0.4798,0.8103,-0.1569,-0.3964,0.1328,0.3294,0.1482,-0.1366,
11.184755,0.4520,0.4753,0.6729,-0.1569,-0.3964,0.1328,0.3294,0.1482,-0.1366,
11.186991,0.4520,0.4753,0.6729,-0.0939,-0.5026,0.1701,0.3294,0.1482,-0.1366,
11.243009,0.4520,0.4753,0.6729,-0.0939,-0.5026,0.1701,0.1087,0.1162,-0.0756,
11.252379,0.4494,0.4839,0.7519,-0.0939,-0.5026,0.1701,0.1087,0.1162,-0.0756,
11.254369,0.4494,0.4839,0.7519,0.0029,-0.5958,-1.1556,0.1087,0.1162,-0.0756,
11.256114,0.4494,0.4839,0.7519,0.0060,-0.5936,-1.1329,0.1087,0.1162,-0.0756,
11.282970,0.4494,0.4839,0.7519,0.0060,-0.5936,-1.1329,0.0430,0.0029,-0.0104,
11.323188,0.4438,0.5301,0.7945,0.0060,-0.5936,-1.1329,0.0430,0.0029,-0.0104,
11.326542,0.4438,0.5301,0.7945,-0.0160,-0.5169,-0.3437,0.0430,0.0029,-0.0104,
11.363591,0.4438,0.5301,0.7945,-0.0160,-0.5169,-0.3437,0.0718,0.0848,-0.1197,
11.393457,0.4438,0.5301,0.7945,-0.0291,-0.0887,0.0677,0.0718,0.0848,-0.1197,
11.396240,0.3993,0.5228,0.7292,-0.0291,-0.0887,0.0677,0.0718,0.0848,-0.1197,
11.398110,0.3993,0.5228,0.7292,0.0314,-0.1436,0.0716,0.0718,0.0848,-0.1197,
11.443434,0.3993,0.5228,0.7292,0.0314,-0.1436,0.0716,0.1076,0.0690,-0.0294,
11.463259,0.4017,0.4976,0.7383,0.0314,-0.1436,0.0716,0.1076,0.0690,-0.0294,
11.465995,0.4017,0.4976,0.7383,-0.3641,-0.2556,-0.5477,0.1076,0.0690,-0.0294,
11.468234,0.4017,0.4976,0.7383,-0.3610,-0.2642,-0.5278,0.1076,0.0690,-0.0294,
11.482816,0.4017,0.4976,0.7383,-0.3610,-0.2642,-0.5278,-0.0166,-0.0052,-0.0053,
11.534137,0.4017,0.4976,0.7383,-0.3315,-0.4957,-0.4365,-0.0166,-0.0052,-0.0053,
11.538294,0.3872,0.4924,0.7594,-0.3315,-0.4957,-0.4365,-0.0166,-0.0052,-0.0053,
11.540478,0.3872,0.4924,0.7594,-0.3365,-0.4854,-0.4248,-0.0166,-0.0052,-0.0053,
11.563733,0.3872,0.4924,0.7594,-0.3365,-0.4854,-0.4248,0.0204,-0.0081,0.0895,
11.577929,0.4554,0.5126,0.7197,-0.3365,-0.4854,-0.4248,0.0204,-0.0081,0.0895,
11.585356,0.4661,0.5126,0.7379,-0.3365,-0.4854,-0.4248,0.0204,-0.0081,0.0895,
11.588009,0.4725,0.5146,0.7486,-0.3365,-0.4854,-0.4248,0.0204,-0.0081,0.0895,
11.590169,0.4715,0.5131,0.7491,-0.3365,-0.4854,-0.4248,0.0204,-0.0081,0.0895,
11.592782,0.4749,0.5156,0.7520,-0.3365,-0.4854,-0.4248,0.0204,-0.0081,0.0895,
11.594756,0.4764,0.5136,0.7559,-0.3365,-0.4854,-0.4248,0.0204,-0.0081,0.0895,
11.596499,0.4754,0.5082,0.7589,-0.3365,-0.4854,-0.4248,0.0204,-0.0081,0.0895,
11.598613,0.4759,0.5082,0.7647,-0.3365,-0.4854,-0.4248,0.0204,-0.0081,0.0895,
11.604395,0.4754,0.5058,0.7657,-0.3365,-0.4854,-0.4248,0.0204,-0.0081,0.0895,
11.605894,0.4749,0.5029,0.7652,-0.3365,-0.4854,-0.4248,0.0204,-0.0081,0.0895,
11.607149,0.4749,0.5077,0.7701,-0.3365,-0.4854,-0.4248,0.0204,-0.0081,0.0895,
11.608425,0.4720,0.5136,0.7696,-0.3365,-0.4854,-0.4248,0.0204,-0.0081,0.0895,
11.610216,0.4681,0.5165,0.7730,-0.3365,-0.4854,-0.4248,0.0204,-0.0081,0.0895,
11.613571,0.4686,0.5156,0.7711,-0.3365,-0.4854,-0.4248,0.0204,-0.0081,0.0895,
11.615178,0.4637,0.5180,0.7677,-0.3365,-0.4854,-0.4248,0.0204,-0.0081,0.0895,
11.617379,0.4666,0.5170,0.7706,-0.3365,-0.4854,-0.4248,0.0204,-0.0081,0.0895,
11.620200,0.4666,0.5160,0.7633,-0.3365,-0.4854,-0.4248,0.0204,-0.0081,0.0895,
11.624331,0.4627,0.5200,0.7633,-0.3365,-0.4854,-0.4248,0.0204,-0.0081,0.0895,
11.625621,0.4651,0.5214,0.7613,-0.3365,-0.4854,-0.4248,0.0204,-0.0081,0.0895,
11.627079,0.4632,0.5229,0.7608,-0.3365,-0.4854,-0.4248,0.0204,-0.0081,0.0895,
11.629620,0.4607,0.5214,0.7564,-0.3365,-0.4854,-0.4248,0.0204,-0.0081,0.0895,
11.633737,0.4656,0.5234,0.7589,-0.3365,-0.4854,-0.4248,0.0204,-0.0081,0.0895,
11.634742,0.4583,0.5258,0.7574,-0.3365,-0.4854,-0.4248,0.0204,-0.0081,0.0895,
11.637605,0.4549,0.5273,0.7525,-0.3365,-0.4854,-0.4248,0.0204,-0.0081,0.0895,
11.639742,0.4539,0.5297,0.7584,-0.3365,-0.4854,-0.4248,0.0204,-0.0081,0.0895,
11.642489,0.4539,0.5297,0.7584,-0.3365,-0.4854,-0.4248,-0.0069,-0.0394,0.1041,
11.643565,0.4539,0.5297,0.7564,-0.3365,-0.4854,-0.4248,-0.0069,-0.0394,0.1041,
11.646445,0.4476,0.5317,0.7574,-0.3365,-0.4854,-0.4248,-0.0069,-0.0394,0.1041,
11.647289,0.4476,0.5317,0.7574,-0.5017,-0.5124,-0.2076,-0.0069,-0.0394,0.1041,
11.648340,0.4476,0.5317,0.7574,-0.5320,-0.4841,-0.1960,-0.0069,-0.0394,0.1041,
11.649365,0.4476,0.5317,0.7574,-0.5342,-0.4557,-0.2006,-0.0069,-0.0394,0.1041,
11.650186,0.4446,0.5287,0.7589,-0.5342,-0.4557,-0.2006,-0.0069,-0.0394,0.1041,
11.650733,0.4441,0.5287,0.7574,-0.5342,-0.4557,-0.2006,-0.0069,-0.0394,0.1041,
11.652119,0.4412,0.5248,0.7598,-0.5342,-0.4557,-0.2006,-0.0069,-0.0394,0.1041,
11.655735,0.4422,0.5229,0.7623,-0.5342,-0.4557,-0.2006,-0.0069,-0.0394,0.1041,
11.657222,0.4388,0.5292,0.7677,-0.5342,-0.4557,-0.2006,-0.0069,-0.0394,0.1041,
11.659803,0.4333,0.5253,0.7691,-0.5342,-0.4557,-0.2006,-0.0069,-0.0394,0.1041,
11.662793,0.4319,0.5273,0.7623,-0.5342,-0.4557,-0.2006,-0.0069,-0.0394,0.1041,
11.664682,0.4275,0.5283,0.7628,-0.5342,-0.4557,-0.2006,-0.0069,-0.0394,0.1041,
11.682838,0.4275,0.5283,0.7628,-0.5342,-0.4557,-0.2006,-0.0382,0.0342,-0.0051,
11.765452,0.4275,0.5283,0.7628,-0.5342,-0.4557,-0.2006,-0.0228,0.0071,0.0486,
11.769346,0.4221,0.5203,0.7539,-0.5342,-0.4557,-0.2006,-0.0228,0.0071,0.0486,
11.771396,0.4221,0.5203,0.7539,0.2501,-0.1998,-0.2181,-0.0228,0.0071,0.0486,
11.773815,0.4221,0.5203,0.7539,0.2539,-0.1858,-0.2263,-0.0228,0.0071,0.0486,
11.835074,0.4455,0.5086,0.7637,0.2539,-0.1858,-0.2263,-0.0228,0.0071,0.0486,
11.838449,0.4455,0.5086,0.7637,-0.1981,-0.1340,-0.2698,-0.0228,0.0071,0.0486,
11.840582,0.4455,0.5086,0.7637,-0.2188,-0.1112,-0.2656,-0.0228,0.0071,0.0486,
11.844131,0.4455,0.5086,0.7637,-0.2188,-0.1112,-0.2656,-0.0192,-0.0153,0.0760,
11.889180,0.4455,0.5086,0.7637,-0.2188,-0.1112,-0.2656,-0.0172,0.0546,0.0130,
11.905124,0.4267,0.4912,0.7394,-0.2188,-0.1112,-0.2656,-0.0172,0.0546,0.0130,
11.907468,0.4267,0.4912,0.7394,0.0089,-0.1916,-0.1561,-0.0172,0.0546,0.0130,
11.908906,0.4267,0.4912,0.7394,0.0233,-0.1640,-0.1517,-0.0172,0.0546,0.0130,
11.964234,0.4267,0.4912,0.7394,0.0233,-0.1640,-0.1517,-0.0478,0.0005,0.0274,
11.974181,0.4593,0.5308,0.7835,0.0233,-0.1640,-0.1517,-0.0478,0.0005,0.0274,
11.975777,0.4593,0.5308,0.7835,-0.1402,-0.2852,-0.3567,-0.0478,0.0005,0.0274,
11.976511,0.4593,0.5308,0.7835,-0.1384,-0.2307,-0.3245,-0.0478,0.0005,0.0274,
12.045157,0.5190,0.6352,0.9093,-0.1384,-0.2307,-0.3245,-0.0478,0.0005,0.0274,
12.047257,0.5190,0.6352,0.9093,0.1662,0.1486,0.0878,-0.0478,0.0005,0.0274,
12.048142,0.5190,0.6352,0.9093,0.1662,0.1486,0.0878,-0.0409,0.0109,-0.0491,
12.084990,0.5190,0.6352,0.9093,0.1662,0.1486,0.0878,0.1075,0.1949,-0.2563,
12.115056,0.5308,0.8829,1.2574,0.1662,0.1486,0.0878,0.1075,0.1949,-0.2563,
12.117220,0.5308,0.8829,1.2574,0.8015,1.1213,1.2836,0.1075,0.1949,-0.2563,
12.118308,0.5308,0.8829,1.2574,0.9107,1.0165,1.2525,0.1075,0.1949,-0.2563,
12.165366,0.5308,0.8829,1.2574,0.9107,1.0165,1.2525,0.9104,0.6035,-0.1474,
12.185396,0.6448,1.1533,1.2985,0.9107,1.0165,1.2525,0.9104,0.6035,-0.1474,
12.187510,0.6448,1.1533,1.2985,1.1618,3.2172,4.6212,0.9104,0.6035,-0.1474,
12.188383,0.6448,1.1533,1.2985,1.4246,2.7179,4.7315,0.9104,0.6035,-0.1474,
12.245656,0.6448,1.1533,1.2985,1.4246,2.7179,4.7315,2.3665,1.1172,-0.1375,
12.257288,0.8891,1.4047,1.2162,1.4246,2.7179,4.7315,2.3665,1.1172,-0.1375,
12.259362,0.8891,1.4047,1.2162,2.8679,4.5898,5.4554,2.3665,1.1172,-0.1375,
12.260140,0.8891,1.4047,1.2162,3.1105,3.7063,6.0568,2.3665,1.1172,-0.1375,
12.285634,0.8891,1.4047,1.2162,3.1105,3.7063,6.0568,3.3653,0.7743,-0.6313,
12.326452,0.8201,1.2810,1.0219,3.1105,3.7063,6.0568,3.3653,0.7743,-0.6313,
12.330043,0.8201,1.2810,1.0219,5.8390,5.1265,6.1926,3.3653,0.7743,-0.6313,
12.365843,0.8201,1.2810,1.0219,5.8390,5.1265,6.1926,4.0019,0.3047,-1.6020,
12.395999,0.3552,0.9744,0.7276,5.8390,5.1265,6.1926,4.0019,0.3047,-1.6020,
12.398511,0.3552,0.9744,0.7276,5.7328,2.9105,5.5850,4.0019,0.3047,-1.6020,
12.399461,0.3552,0.9744,0.7276,6.3181,2.1479,7.1015,4.0019,0.3047,-1.6020,
12.446703,0.3552,0.9744,0.7276,6.3181,2.1479,7.1015,4.0981,-0.7666,-1.3204,
12.466188,0.0966,0.7555,0.2545,6.3181,2.1479,7.1015,4.0981,-0.7666,-1.3204,
12.468240,0.0966,0.7555,0.2545,2.2509,-1.2486,5.9115,4.0981,-0.7666,-1.3204,
12.469203,0.0966,0.7555,0.2545,2.6310,-1.3188,7.5878,4.0981,-0.7666,-1.3204,
12.485915,0.0966,0.7555,0.2545,2.6310,-1.3188,7.5878,3.5628,-1.8800,-0.8863,
12.536440,0.0424,0.4187,0.2053,2.6310,-1.3188,7.5878,3.5628,-1.8800,-0.8863,
12.538754,0.0424,0.4187,0.2053,0.5644,-3.2612,4.4133,3.5628,-1.8800,-0.8863,
12.539532,0.0424,0.4187,0.2053,1.2569,-2.9740,5.3556,3.5628,-1.8800,-0.8863,
12.566880,0.0424,0.4187,0.2053,1.2569,-2.9740,5.3556,2.3828,-2.1066,-1.3591,
12.606646,-0.1925,0.0842,-0.0662,1.2569,-2.9740,5.3556,2.3828,-2.1066,-1.3591,
12.608193,-0.1925,0.0842,-0.0662,1.6270,-5.8180,5.6646,2.3828,-2.1066,-1.3591,
12.646901,-0.1925,0.0842,-0.0662,1.6270,-5.8180,5.6646,1.8768,-2.3467,-1.7321,
12.677048,-0.4789,-0.1292,-0.0483,1.6270,-5.8180,5.6646,1.8768,-2.3467,-1.7321,
12.678988,-0.4789,-0.1292,-0.0483,0.3652,-8.5229,3.5371,1.8768,-2.3467,-1.7321,
12.679736,-0.4789,-0.1292,-0.0483,1.4080,-7.9634,3.6861,1.8768,-2.3467,-1.7321,
12.686836,-0.4789,-0.1292,-0.0483,1.4080,-7.9634,3.6861,0.9579,-1.7335,-1.9241,
12.747105,-0.6657,-0.3009,-0.1992,1.4080,-7.9634,3.6861,0.9579,-1.7335,-1.9241,
12.749183,-0.6657,-0.3009,-0.1992,-0.4445,-9.4503,3.8517,0.9579,-1.7335,-1.9241,
12.749940,-0.6657,-0.3009,-0.1992,0.2943,-8.7886,3.9281,0.9579,-1.7335,-1.9241,
12.768267,-0.6657,-0.3009,-0.1992,0.2943,-8.7886,3.9281,0.6791,0.2925,-2.2851,
12.817645,-1.0303,-0.7753,-0.7734,0.2943,-8.7886,3.9281,0.6791,0.2925,-2.2851,
12.819670,-1.0303,-0.7753,-0.7734,-1.0296,-9.6460,2.8745,0.6791,0.2925,-2.2851,
12.820426,-1.0303,-0.7753,-0.7734,-0.8841,-8.9552,3.3551,0.6791,0.2925,-2.2851,
12.847512,-1.0303,-0.7753,-0.7734,-0.8841,-8.9552,3.3551,0.0989,2.2186,-2.1892,
12.887697,-1.0303,-0.7753,-0.7734,-0.8841,-8.9552,3.3551,-1.2888,1.7741,-0.2439,
12.889546,-0.9106,-0.8406,-0.5981,-0.8841,-8.9552,3.3551,-1.2888,1.7741,-0.2439,
12.890249,-0.9106,-0.8406,-0.5981,-4.6152,-13.2679,-1.8803,-1.2888,1.7741,-0.2439,
12.957921,-0.5529,-0.9924,0.0054,-4.6152,-13.2679,-1.8803,-1.2888,1.7741,-0.2439,
12.960726,-0.5529,-0.9924,0.0054,-3.7633,-14.0363,-0.1791,-1.2888,1.7741,-0.2439,
12.962078,-0.5529,-0.9924,0.0054,-4.2043,-14.4878,-0.4918,-1.2888,1.7741,-0.2439,
12.968108,-0.5529,-0.9924,0.0054,-4.2043,-14.4878,-0.4918,-3.1368,1.7981,0.6564,
13.028146,-0.5476,-0.8988,0.9605,-4.2043,-14.4878,-0.4918,-3.1368,1.7981,0.6564,
13.030505,-0.5476,-0.8988,0.9605,-1.2856,-16.6265,4.6305,-3.1368,1.7981,0.6564,
13.031389,-0.5476,-0.8988,0.9605,-1.8634,-17.2657,3.4428,-3.1368,1.7981,0.6564,
13.048312,-0.5476,-0.8988,0.9605,-1.8634,-17.2657,3.4428,-5.0905,2.3664,0.7857,
13.088312,-0.5476,-0.8988,0.9605,-1.8634,-17.2657,3.4428,-6.5405,1.7434,2.5072,
13.098899,-0.1803,-0.4057,2.2697,-1.8634,-17.2657,3.4428,-6.5405,1.7434,2.5072,
13.101608,-0.1803,-0.4057,2.2697,-2.4692,-16.8744,10.9800,-6.5405,1.7434,2.5072,
13.103237,-0.1803,-0.4057,2.2697,-3.4189,-17.0079,8.7221,-6.5405,1.7434,2.5072,
13.168986,1.2763,0.4097,2.4319,-3.4189,-17.0079,8.7221,-6.5405,1.7434,2.5072,
13.172199,1.2763,0.4097,2.4319,-1.3377,-11.8423,19.4133,-6.5405,1.7434,2.5072,
13.173553,1.2763,0.4097,2.4319,-1.3377,-11.8423,19.4133,-5.7360,1.2804,4.3653,
13.238961,1.2512,0.8762,3.1839,-1.3377,-11.8423,19.4133,-5.7360,1.2804,4.3653,
13.241768,1.2512,0.8762,3.1839,11.9912,-2.9187,18.9063,-5.7360,1.2804,4.3653,
13.242750,1.2512,0.8762,3.1839,11.6504,-1.2226,16.8738,-5.7360,1.2804,4.3653,
13.252079,1.2512,0.8762,3.1839,11.6504,-1.2226,16.8738,-6.8187,1.9507,2.4815,
13.289044,1.2512,0.8762,3.1839,11.6504,-1.2226,16.8738,-3.0872,-0.0011,4.0158,
13.309229,1.8070,1.4794,2.6963,11.6504,-1.2226,16.8738,-3.0872,-0.0011,4.0158,
13.310907,1.8070,1.4794,2.6963,10.7237,4.8719,22.9667,-3.0872,-0.0011,4.0158,
13.311555,1.8070,1.4794,2.6963,9.9705,5.8626,22.3038,-3.0872,-0.0011,4.0158,
13.369604,1.8070,1.4794,2.6963,9.9705,5.8626,22.3038,0.5341,0.3469,3.4530,
13.379605,1.6943,1.4467,1.7615,9.9705,5.8626,22.3038,0.5341,0.3469,3.4530,
13.382050,1.6943,1.4467,1.7615,14.8227,11.9549,17.2200,0.5341,0.3469,3.4530,
13.382883,1.6943,1.4467,1.7615,14.5791,11.5259,16.9986,0.5341,0.3469,3.4530,
13.450161,1.6943,1.4467,1.7615,14.5791,11.5259,16.9986,2.2175,0.7462,1.1851,
13.453155,1.6943,1.4467,1.7615,13.3760,10.3467,7.9050,2.2175,0.7462,1.1851,
13.454018,0.8499,0.9737,1.5108,13.3760,10.3467,7.9050,2.2175,0.7462,1.1851,
13.489659,0.8499,0.9737,1.5108,13.3760,10.3467,7.9050,2.9775,-0.1639,0.8029,
13.519479,0.7771,0.9115,1.5594,13.3760,10.3467,7.9050,2.9775,-0.1639,0.8029,
13.522479,0.7771,0.9115,1.5594,5.0558,4.8407,5.6992,2.9775,-0.1639,0.8029,
13.523431,0.7771,0.9115,1.5594,4.6419,3.7489,6.3380,2.9775,-0.1639,0.8029,
13.567042,0.7492,1.0108,1.4609,4.6419,3.7489,6.3380,2.9775,-0.1639,0.8029,
13.569113,0.7492,1.0108,1.4609,4.6419,3.7489,6.3380,4.2238,-0.9546,0.7194,
13.570175,0.7628,0.9287,1.3988,4.6419,3.7489,6.3380,4.2238,-0.9546,0.7194,
13.571499,0.7638,0.9213,1.3891,4.6419,3.7489,6.3380,4.2238,-0.9546,0.7194,
13.573995,0.7550,0.9062,1.3592,4.6419,3.7489,6.3380,4.2238,-0.9546,0.7194,
13.578246,0.7501,0.8876,1.3421,4.6419,3.7489,6.3380,4.2238,-0.9546,0.7194,
13.579831,0.7462,0.8744,1.3186,4.6419,3.7489,6.3380,4.2238,-0.9546,0.7194,
13.582154,0.7492,0.8617,1.3020,4.6419,3.7489,6.3380,4.2238,-0.9546,0.7194,
13.584084,0.7433,0.8534,1.2835,4.6419,3.7489,6.3380,4.2238,-0.9546,0.7194,
13.587081,0.7374,0.8402,1.2639,4.6419,3.7489,6.3380,4.2238,-0.9546,0.7194,
13.589481,0.7316,0.8294,1.2453,4.6419,3.7489,6.3380,4.2238,-0.9546,0.7194,
13.591993,0.7228,0.8133,1.2365,4.6419,3.7489,6.3380,4.2238,-0.9546,0.7194,
13.596182,0.7179,0.7932,1.2204,4.6419,3.7489,6.3380,4.2238,-0.9546,0.7194,
13.597937,0.7106,0.7786,1.2145,4.6419,3.7489,6.3380,4.2238,-0.9546,0.7194,
13.600184,0.7027,0.7644,1.2106,4.6419,3.7489,6.3380,4.2238,-0.9546,0.7194,
13.602295,0.6861,0.7517,1.1969,4.6419,3.7489,6.3380,4.2238,-0.9546,0.7194,
13.604297,0.6680,0.7424,1.1832,4.6419,3.7489,6.3380,4.2238,-0.9546,0.7194,
13.606755,0.6499,0.7282,1.1739,4.6419,3.7489,6.3380,4.2238,-0.9546,0.7194,
13.609352,0.6499,0.7282,1.1739,4.6419,3.7489,6.3380,4.5896,-1.1815,-0.0430,
13.610013,0.6221,0.7194,1.1548,4.6419,3.7489,6.3380,4.5896,-1.1815,-0.0430,
13.612038,0.5898,0.7077,1.1402,4.6419,3.7489,6.3380,4.5896,-1.1815,-0.0430,
13.614131,0.5541,0.7013,1.1168,4.6419,3.7489,6.3380,4.5896,-1.1815,-0.0430,
13.617128,0.5194,0.6974,1.0942,4.6419,3.7489,6.3380,4.5896,-1.1815,-0.0430,
13.619658,0.4871,0.6886,1.0801,4.6419,3.7489,6.3380,4.5896,-1.1815,-0.0430,
13.622411,0.4593,0.6803,1.0679,4.6419,3.7489,6.3380,4.5896,-1.1815,-0.0430,
13.624162,0.4363,0.6784,1.0517,4.6419,3.7489,6.3380,4.5896,-1.1815,-0.0430,
13.627147,0.4138,0.6647,1.0361,4.6419,3.7489,6.3380,4.5896,-1.1815,-0.0430,
13.629402,0.3894,0.6461,1.0224,4.6419,3.7489,6.3380,4.5896,-1.1815,-0.0430,
13.633360,0.3722,0.6324,1.0053,4.6419,3.7489,6.3380,4.5896,-1.1815,-0.0430,
13.634385,0.3722,0.6324,1.0053,3.3260,1.9389,7.9033,4.5896,-1.1815,-0.0430,
13.635536,0.3722,0.6324,1.0053,2.9349,0.8203,9.2326,4.5896,-1.1815,-0.0430,
13.636150,0.3722,0.6324,1.0053,2.6627,-0.1375,10.8649,4.5896,-1.1815,-0.0430,
13.636944,0.3561,0.6202,0.9979,2.6627,-0.1375,10.8649,4.5896,-1.1815,-0.0430,
13.637539,0.3415,0.6021,0.9872,2.6627,-0.1375,10.8649,4.5896,-1.1815,-0.0430,
13.639329,0.3283,0.5874,0.9750,2.6627,-0.1375,10.8649,4.5896,-1.1815,-0.0430,
13.641767,0.3175,0.5767,0.9637,2.6627,-0.1375,10.8649,4.5896,-1.1815,-0.0430,
13.644267,0.3028,0.5605,0.9515,2.6627,-0.1375,10.8649,4.5896,-1.1815,-0.0430,
13.647362,0.2906,0.5454,0.9353,2.6627,-0.1375,10.8649,4.5896,-1.1815,-0.0430,
13.649835,0.2769,0.5322,0.9251,2.6627,-0.1375,10.8649,4.5896,-1.1815,-0.0430,
13.651872,0.2632,0.5121,0.9129,2.6627,-0.1375,10.8649,4.5896,-1.1815,-0.0430,
13.656120,0.2569,0.4926,0.9099,2.6627,-0.1375,10.8649,4.5896,-1.1815,-0.0430,
13.657508,0.2520,0.4769,0.8997,2.6627,-0.1375,10.8649,4.5896,-1.1815,-0.0430,
13.659889,0.2534,0.4608,0.8904,2.6627,-0.1375,10.8649,4.5896,-1.1815,-0.0430,
13.662513,0.2598,0.4442,0.8816,2.6627,-0.1375,10.8649,4.5896,-1.1815,-0.0430,
13.664331,0.2671,0.4261,0.8723,2.6627,-0.1375,10.8649,4.5896,-1.1815,-0.0430,
13.667101,0.2735,0.4134,0.8615,2.6627,-0.1375,10.8649,4.5896,-1.1815,-0.0430,
13.669184,0.2740,0.3968,0.8420,2.6627,-0.1375,10.8649,4.5896,-1.1815,-0.0430,
13.671829,0.2735,0.3880,0.8136,2.6627,-0.1375,10.8649,4.5896,-1.1815,-0.0430,
13.674320,0.2710,0.3777,0.7882,2.6627,-0.1375,10.8649,4.5896,-1.1815,-0.0430,
13.677498,0.2720,0.3698,0.7559,2.6627,-0.1375,10.8649,4.5896,-1.1815,-0.0430,
13.679393,0.2691,0.3606,0.7212,2.6627,-0.1375,10.8649,4.5896,-1.1815,-0.0430,
13.681905,0.2666,0.3474,0.6919,2.6627,-0.1375,10.8649,4.5896,-1.1815,-0.0430,
13.684496,0.2686,0.3376,0.6542,2.6627,-0.1375,10.8649,4.5896,-1.1815,-0.0430,
13.687097,0.2681,0.3254,0.6162,2.6627,-0.1375,10.8649,4.5896,-1.1815,-0.0430,
13.689793,0.2666,0.3156,0.5795,2.6627,-0.1375,10.8649,4.5896,-1.1815,-0.0430,
13.690665,0.2666,0.3156,0.5795,2.6627,-0.1375,10.8649,4.7251,-1.6076,-0.4647,
13.692228,0.2686,0.3044,0.5506,2.6627,-0.1375,10.8649,4.7251,-1.6076,-0.4647,
13.695863,0.2804,0.2936,0.5179,2.6627,-0.1375,10.8649,4.7251,-1.6076,-0.4647,
13.705990,0.2804,0.2936,0.5179,1.2542,-2.1142,9.3284,4.7251,-1.6076,-0.4647,
13.707373,0.2804,0.2936,0.5179,1.3232,-2.4272,11.3666,4.7251,-1.6076,-0.4647,
13.770557,0.2804,0.2936,0.5179,1.3232,-2.4272,11.3666,4.2081,-1.9078,-0.3063,
13.811462,0.2804,0.2936,0.5179,1.3232,-2.4272,11.3666,2.9542,-1.5847,-0.6467,
13.815327,0.2804,0.2936,0.5179,-1.9788,-5.7030,9.3775,2.9542,-1.5847,-0.6467,
13.818131,0.1958,-0.2686,0.1190,-1.9788,-5.7030,9.3775,2.9542,-1.5847,-0.6467,
13.820309,0.1958,-0.2686,0.1190,-1.6044,-5.3358,10.9343,2.9542,-1.5847,-0.6467,
13.882542,0.1681,-0.7429,-0.4201,-1.6044,-5.3358,10.9343,2.9542,-1.5847,-0.6467,
13.885988,0.1681,-0.7429,-0.4201,-1.9153,-11.6443,5.5895,2.9542,-1.5847,-0.6467,
13.888660,0.1681,-0.7429,-0.4201,-1.4424,-11.0011,6.6063,2.9542,-1.5847,-0.6467,
13.891134,0.1681,-0.7429,-0.4201,-1.4424,-11.0011,6.6063,2.1941,-1.4964,-0.0152,
13.952451,0.2613,-1.0065,-0.6402,-1.4424,-11.0011,6.6063,2.1941,-1.4964,-0.0152,
13.956313,0.2613,-1.0065,-0.6402,-1.4069,-14.9053,2.1228,2.1941,-1.4964,-0.0152,
13.958834,0.2613,-1.0065,-0.6402,-1.0621,-14.3651,2.5671,2.1941,-1.4964,-0.0152,
13.971659,0.2613,-1.0065,-0.6402,-1.0621,-14.3651,2.5671,0.5350,-1.7311,0.4913,
14.012405,0.2613,-1.0065,-0.6402,-1.0621,-14.3651,2.5671,-1.2495,-1.5146,0.8327,
14.026495,0.2714,-1.0126,-0.4764,-1.0621,-14.3651,2.5671,-1.2495,-1.5146,0.8327,
14.029669,0.2714,-1.0126,-0.4764,0.1337,-16.7114,0.4621,-1.2495,-1.5146,0.8327,
14.032306,0.2714,-1.0126,-0.4764,0.2962,-16.6914,0.2404,-1.2495,-1.5146,0.8327,
14.094172,0.2714,-1.0126,-0.4764,0.2962,-16.6914,0.2404,-3.1853,-2.3578,1.5836,
14.098424,0.2714,-1.0126,-0.4764,0.4821,-16.9426,1.3166,-3.1853,-2.3578,1.5836,
14.101028,0.3479,-0.7904,-0.1581,0.4821,-16.9426,1.3166,-3.1853,-2.3578,1.5836,
14.163642,0.6972,-0.4339,0.9770,0.4821,-16.9426,1.3166,-3.1853,-2.3578,1.5836,
14.167560,0.6972,-0.4339,0.9770,1.2863,-15.1797,3.5161,-3.1853,-2.3578,1.5836,
14.170435,0.6972,-0.4339,0.9770,1.1966,-15.6969,2.0356,-3.1853,-2.3578,1.5836,
14.173216,0.6972,-0.4339,0.9770,1.1966,-15.6969,2.0356,-5.8424,-2.7358,1.7869,
14.212564,0.6972,-0.4339,0.9770,1.1966,-15.6969,2.0356,-7.7094,-1.9619,1.4445,
14.233636,0.6972,-0.4339,0.9770,4.2460,-12.5522,10.8695,-7.7094,-1.9619,1.4445,
14.237358,0.9845,0.4288,2.5684,4.2460,-12.5522,10.8695,-7.7094,-1.9619,1.4445,
14.239334,0.9845,0.4288,2.5684,3.7196,-12.2189,8.3647,-7.7094,-1.9619,1.4445,
14.294628,0.9845,0.4288,2.5684,3.7196,-12.2189,8.3647,-6.1994,-2.0480,1.1975,
14.305940,0.9845,0.4288,2.5684,5.7855,-2.9661,21.9117,-6.1994,-2.0480,1.1975,
14.309618,0.9466,1.2554,2.5637,5.7855,-2.9661,21.9117,-6.1994,-2.0480,1.1975,
14.312154,0.9466,1.2554,2.5637,5.1381,-1.8240,20.2799,-6.1994,-2.0480,1.1975,
14.373996,0.4958,1.5453,2.5152,5.1381,-1.8240,20.2799,-6.1994,-2.0480,1.1975,
14.378039,0.4958,1.5453,2.5152,5.1381,-1.8240,20.2799,-5.1876,-1.1735,0.5634,
14.380223,0.4958,1.5453,2.5152,4.3489,7.4451,18.9197,-5.1876,-1.1735,0.5634,
14.414818,0.4958,1.5453,2.5152,4.3489,7.4451,18.9197,-2.5958,-0.5742,0.9511,
14.444421,0.6259,1.5898,1.7775,4.3489,7.4451,18.9197,-2.5958,-0.5742,0.9511,
14.448375,0.6259,1.5898,1.7775,-0.5405,11.3418,17.7090,-2.5958,-0.5742,0.9511,
14.450658,0.6259,1.5898,1.7775,-0.8002,12.0527,17.1979,-2.5958,-0.5742,0.9511,
14.494395,0.6259,1.5898,1.7775,-0.8002,12.0527,17.1979,-0.4457,0.1940,0.2618,
14.515534,0.6079,1.0179,1.0882,-0.8002,12.0527,17.1979,-0.4457,0.1940,0.2618,
14.517230,0.6079,1.0179,1.0882,0.4110,12.6729,9.6922,-0.4457,0.1940,0.2618,
14.518237,0.6079,1.0179,1.0882,0.4929,12.5127,9.4469,-0.4457,0.1940,0.2618,
14.573852,0.6079,1.0179,1.0882,0.4929,12.5127,9.4469,0.3547,0.4113,-0.2337,
14.585625,0.6079,1.0179,1.0882,0.5029,6.6553,2.5690,0.3547,0.4113,-0.2337,
14.588312,0.4919,0.5425,0.8209,0.5029,6.6553,2.5690,0.3547,0.4113,-0.2337,
14.589700,0.4919,0.5425,0.8209,0.5603,6.3029,2.5850,0.3547,0.4113,-0.2337,
14.614145,0.4919,0.5425,0.8209,0.5603,6.3029,2.5850,0.6366,0.0555,-0.1111,
14.655224,0.4919,0.5425,0.8209,-0.5355,1.3931,0.0512,0.6366,0.0555,-0.1111,
14.658404,0.4686,0.3838,0.8142,-0.5355,1.3931,0.0512,0.6366,0.0555,-0.1111,
14.694872,0.4686,0.3838,0.8142,-0.5355,1.3931,0.0512,0.7654,0.1257,0.0047,
14.725039,0.4807,0.3633,0.6744,-0.5355,1.3931,0.0512,0.7654,0.1257,0.0047,
14.728490,0.4807,0.3633,0.6744,-0.7056,-0.3878,0.0697,0.7654,0.1257,0.0047,
14.730623,0.4807,0.3633,0.6744,-0.6618,-0.6260,0.1802,0.7654,0.1257,0.0047,
14.775401,0.4807,0.3633,0.6744,-0.6618,-0.6260,0.1802,0.8413,0.0502,0.0277,
14.794851,0.4807,0.3633,0.6744,-0.5239,-1.0835,-1.0182,0.8413,0.0502,0.0277,
14.798370,0.4807,0.3633,0.6744,-0.5026,-1.2466,-0.8966,0.8413,0.0502,0.0277,
14.800249,0.4929,0.3744,0.6109,-0.5026,-1.2466,-0.8966,0.8413,0.0502,0.0277,
14.815081,0.4929,0.3744,0.6109,-0.5026,-1.2466,-0.8966,0.2616,0.1184,-0.0249,
14.866709,0.4929,0.3744,0.6109,-0.3334,-1.1903,-1.4775,0.2616,0.1184,-0.0249,
14.870595,0.4994,0.4012,0.7530,-0.3334,-1.1903,-1.4775,0.2616,0.1184,-0.0249,
14.872220,0.4994,0.4012,0.7530,-0.2830,-1.2120,-1.4566,0.2616,0.1184,-0.0249,
14.895389,0.4994,0.4012,0.7530,-0.2830,-1.2120,-1.4566,0.1847,0.2184,0.0539,
14.936410,0.4996,0.4324,0.7224,-0.2830,-1.2120,-1.4566,0.1847,0.2184,0.0539,
14.939741,0.4996,0.4324,0.7224,-0.1547,-0.9785,-0.0747,0.1847,0.2184,0.0539,
14.976005,0.4996,0.4324,0.7224,-0.1547,-0.9785,-0.0747,0.2724,0.1373,0.0840,
15.006183,0.5271,0.4567,0.6851,-0.1547,-0.9785,-0.0747,0.2724,0.1373,0.0840,
15.010503,0.5271,0.4567,0.6851,-0.1180,-0.7292,-0.3460,0.2724,0.1373,0.0840,
15.012274,0.5271,0.4567,0.6851,-0.1246,-0.7638,-0.3029,0.2724,0.1373,0.0840,
15.018057,0.5271,0.4567,0.6851,-0.1246,-0.7638,-0.3029,0.0634,0.0779,0.0431,
15.076568,0.4883,0.4909,0.7366,-0.1246,-0.7638,-0.3029,0.0634,0.0779,0.0431,
15.080216,0.4883,0.4909,0.7366,0.1601,-0.5215,-0.6659,0.0634,0.0779,0.0431,
15.082821,0.4883,0.4909,0.7366,0.2060,-0.5083,-0.6906,0.0634,0.0779,0.0431,
15.095537,0.4883,0.4909,0.7366,0.2060,-0.5083,-0.6906,-0.0214,0.0546,-0.0025,
15.147077,0.5265,0.5034,0.7448,0.2060,-0.5083,-0.6906,-0.0214,0.0546,-0.0025,
15.150834,0.5265,0.5034,0.7448,-0.1831,-0.1632,-0.1793,-0.0214,0.0546,-0.0025,
15.153056,0.5265,0.5034,0.7448,-0.1925,-0.1679,-0.1629,-0.0214,0.0546,-0.0025,
15.176695,0.5265,0.5034,0.7448,-0.1925,-0.1679,-0.1629,0.0465,-0.0041,0.0193,
15.217094,0.4955,0.4932,0.7366,-0.1925,-0.1679,-0.1629,0.0465,-0.0041,0.0193,
15.220316,0.4955,0.4932,0.7366,0.2045,-0.0640,-0.0856,0.0465,-0.0041,0.0193,
15.222796,0.4955,0.4932,0.7366,0.2045,-0.0640,-0.0856,0.0184,0.0461,-0.0716,
15.287046,0.4933,0.4838,0.7285,0.2045,-0.0640,-0.0856,0.0184,0.0461,-0.0716,
15.290463,0.4933,0.4838,0.7285,-0.0698,-0.1805,-0.1678,0.0184,0.0461,-0.0716,
15.292608,0.4933,0.4838,0.7285,-0.0663,-0.1940,-0.1554,0.0184,0.0461,-0.0716,
15.296619,0.4933,0.4838,0.7285,-0.0663,-0.1940,-0.1554,0.0325,0.0017,-0.0213,
15.357768,0.4990,0.4856,0.7263,-0.0663,-0.1940,-0.1554,0.0325,0.0017,-0.0213,
15.361849,0.4990,0.4856,0.7263,-0.0785,-0.2925,-0.2287,0.0325,0.0017,-0.0213,
15.364310,0.4990,0.4856,0.7263,-0.0792,-0.2874,-0.2238,0.0325,0.0017,-0.0213,
15.377303,0.4990,0.4856,0.7263,-0.0792,-0.2874,-0.2238,0.0168,0.0111,0.0385,
15.417799,0.4990,0.4856,0.7263,-0.0792,-0.2874,-0.2238,-0.0017,-0.0217,0.0439,
15.427363,0.5166,0.4924,0.7229,-0.0792,-0.2874,-0.2238,-0.0017,-0.0217,0.0439,
15.430846,0.5166,0.4924,0.7229,-0.0353,-0.2270,-0.2170,-0.0017,-0.0217,0.0439,
15.433372,0.5166,0.4924,0.7229,-0.0448,-0.1943,-0.1890,-0.0017,-0.0217,0.0439,
15.497594,0.5166,0.4924,0.7229,-0.0448,-0.1943,-0.1890,-0.0292,-0.0111,-0.0174,
15.501236,0.5038,0.5014,0.7365,-0.0448,-0.1943,-0.1890,-0.0292,-0.0111,-0.0174,
15.503268,0.5038,0.5014,0.7365,0.1147,-0.1071,-0.2034,-0.0292,-0.0111,-0.0174,
15.569735,0.5209,0.4872,0.7423,0.1147,-0.1071,-0.2034,-0.0292,-0.0111,-0.0174,
15.572278,0.5238,0.4907,0.7452,0.1147,-0.1071,-0.2034,-0.0292,-0.0111,-0.0174,
15.573744,0.5214,0.4892,0.7384,0.1147,-0.1071,-0.2034,-0.0292,-0.0111,-0.0174,
15.575094,0.5184,0.4950,0.7423,0.1147,-0.1071,-0.2034,-0.0292,-0.0111,-0.0174,
15.578557,0.5184,0.4950,0.7423,0.1147,-0.1071,-0.2034,-0.0113,-0.0364,-0.0353,
15.580235,0.5194,0.4946,0.7393,0.1147,-0.1071,-0.2034,-0.0113,-0.0364,-0.0353,
15.581422,0.5184,0.4950,0.7374,0.1147,-0.1071,-0.2034,-0.0113,-0.0364,-0.0353,
15.582665,0.5199,0.4946,0.7418,0.1147,-0.1071,-0.2034,-0.0113,-0.0364,-0.0353,
15.584254,0.5233,0.4960,0.7418,0.1147,-0.1071,-0.2034,-0.0113,-0.0364,-0.0353,
15.586793,0.5248,0.4946,0.7335,0.1147,-0.1071,-0.2034,-0.0113,-0.0364,-0.0353,
15.590437,0.5189,0.4980,0.7354,0.1147,-0.1071,-0.2034,-0.0113,-0.0364,-0.0353,
15.591831,0.5204,0.4975,0.7384,0.1147,-0.1071,-0.2034,-0.0113,-0.0364,-0.0353,
15.595278,0.5170,0.4946,0.7374,0.1147,-0.1071,-0.2034,-0.0113,-0.0364,-0.0353,
15.597337,0.5160,0.4946,0.7340,0.1147,-0.1071,-0.2034,-0.0113,-0.0364,-0.0353,
15.602411,0.5111,0.4950,0.7325,0.1147,-0.1071,-0.2034,-0.0113,-0.0364,-0.0353,
15.603793,0.5111,0.4921,0.7359,0.1147,-0.1071,-0.2034,-0.0113,-0.0364,-0.0353,
15.604716,0.5121,0.4946,0.7354,0.1147,-0.1071,-0.2034,-0.0113,-0.0364,-0.0353,
15.606425,0.5140,0.4975,0.7261,0.1147,-0.1071,-0.2034,-0.0113,-0.0364,-0.0353,
15.608984,0.5101,0.4980,0.7207,0.1147,-0.1071,-0.2034,-0.0113,-0.0364,-0.0353,
15.611755,0.5043,0.4946,0.7252,0.1147,-0.1071,-0.2034,-0.0113,-0.0364,-0.0353,
15.613987,0.5048,0.4936,0.7261,0.1147,-0.1071,-0.2034,-0.0113,-0.0364,-0.0353,
15.616778,0.5048,0.4936,0.7261,0.1147,-0.1071,-0.2034,0.0194,-0.0411,-0.0458,
15.617946,0.5004,0.4965,0.7276,0.1147,-0.1071,-0.2034,0.0194,-0.0411,-0.0458,
15.618956,0.4974,0.4960,0.7252,0.1147,-0.1071,-0.2034,0.0194,-0.0411,-0.0458,
15.622144,0.5004,0.4941,0.7173,0.1147,-0.1071,-0.2034,0.0194,-0.0411,-0.0458,
15.623787,0.4925,0.4946,0.7173,0.1147,-0.1071,-0.2034,0.0194,-0.0411,-0.0458,
15.626705,0.4915,0.4941,0.7193,0.1147,-0.1071,-0.2034,0.0194,-0.0411,-0.0458,
15.629843,0.4945,0.4941,0.7168,0.1147,-0.1071,-0.2034,0.0194,-0.0411,-0.0458,
15.633519,0.4905,0.4970,0.7158,0.1147,-0.1071,-0.2034,0.0194,-0.0411,-0.0458,
15.634739,0.4905,0.4970,0.7158,-0.0102,-0.0148,-0.0623,0.0194,-0.0411,-0.0458,
15.635744,0.4905,0.4970,0.7158,-0.0112,-0.0164,-0.0518,0.0194,-0.0411,-0.0458,
15.636836,0.4905,0.4970,0.7158,-0.0191,-0.0184,-0.0372,0.0194,-0.0411,-0.0458,
15.637556,0.4905,0.4970,0.7158,-0.0181,-0.0315,-0.0220,0.0194,-0.0411,-0.0458,
15.638346,0.4900,0.4960,0.7149,-0.0181,-0.0315,-0.0220,0.0194,-0.0411,-0.0458,
15.639006,0.4910,0.4921,0.7183,-0.0181,-0.0315,-0.0220,0.0194,-0.0411,-0.0458,
15.639520,0.4905,0.4907,0.7178,-0.0181,-0.0315,-0.0220,0.0194,-0.0411,-0.0458,
15.641812,0.4842,0.4960,0.7197,-0.0181,-0.0315,-0.0220,0.0194,-0.0411,-0.0458,
15.643837,0.4847,0.4941,0.7207,-0.0181,-0.0315,-0.0220,0.0194,-0.0411,-0.0458,
15.646674,0.4881,0.4921,0.7188,-0.0181,-0.0315,-0.0220,0.0194,-0.0411,-0.0458,
15.648841,0.4822,0.4911,0.7197,-0.0181,-0.0315,-0.0220,0.0194,-0.0411,-0.0458,
15.651609,0.4827,0.4911,0.7173,-0.0181,-0.0315,-0.0220,0.0194,-0.0411,-0.0458,
15.654866,0.4822,0.4916,0.7207,-0.0181,-0.0315,-0.0220,0.0194,-0.0411,-0.0458,
15.656701,0.4783,0.4902,0.7246,-0.0181,-0.0315,-0.0220,0.0194,-0.0411,-0.0458,
15.659503,0.4778,0.4872,0.7281,-0.0181,-0.0315,-0.0220,0.0194,-0.0411,-0.0458,
15.661625,0.4778,0.4882,0.7345,-0.0181,-0.0315,-0.0220,0.0194,-0.0411,-0.0458,
15.664127,0.4754,0.4897,0.7379,-0.0181,-0.0315,-0.0220,0.0194,-0.0411,-0.0458,
15.666849,0.4769,0.4877,0.7413,-0.0181,-0.0315,-0.0220,0.0194,-0.0411,-0.0458,
15.697291,0.4769,0.4877,0.7413,-0.0181,-0.0315,-0.0220,-0.0129,0.0222,-0.1035,
15.748704,0.4769,0.4877,0.7413,0.0714,-0.1077,-0.0675,-0.0129,0.0222,-0.1035,
15.752005,0.4757,0.4871,0.7333,0.0714,-0.1077,-0.0675,-0.0129,0.0222,-0.1035,
15.754155,0.4757,0.4871,0.7333,0.0864,-0.1050,-0.0692,-0.0129,0.0222,-0.1035,
15.756080,0.4757,0.4871,0.7333,0.0807,-0.1035,-0.0572,-0.0129,0.0222,-0.1035,
15.778441,0.4757,0.4871,0.7333,0.0807,-0.1035,-0.0572,0.0041,-0.0246,-0.0471,
15.819154,0.4757,0.4871,0.7333,0.0807,-0.1035,-0.0572,-0.0266,-0.0253,-0.0039,
15.822427,0.4757,0.4871,0.7333,-0.2453,-0.1611,-0.0247,-0.0266,-0.0253,-0.0039,
15.824018,0.5035,0.5021,0.7276,-0.2453,-0.1611,-0.0247,-0.0266,-0.0253,-0.0039,
15.889540,0.5035,0.5021,0.7276,0.0197,-0.0042,-0.0745,-0.0266,-0.0253,-0.0039,
15.892131,0.5057,0.5135,0.7148,0.0197,-0.0042,-0.0745,-0.0266,-0.0253,-0.0039,
15.893832,0.5057,0.5135,0.7148,0.0283,-0.0067,-0.0714,-0.0266,-0.0253,-0.0039,
15.898532,0.5057,0.5135,0.7148,0.0283,-0.0067,-0.0714,-0.0265,-0.0293,-0.0776,
15.960366,0.5308,0.5552,0.7751,0.0283,-0.0067,-0.0714,-0.0265,-0.0293,-0.0776,
15.964469,0.5308,0.5552,0.7751,0.0442,0.0827,-0.1678,-0.0265,-0.0293,-0.0776,
15.966905,0.5308,0.5552,0.7751,0.0570,0.0654,-0.1556,-0.0265,-0.0293,-0.0776,
15.979148,0.5308,0.5552,0.7751,0.0570,0.0654,-0.1556,-0.0695,-0.0250,-0.1639,
16.019604,0.5308,0.5552,0.7751,0.0570,0.0654,-0.1556,-0.0501,0.1703,-0.4206,
16.030263,0.5308,0.5552,0.7751,0.3267,0.3916,0.3687,-0.0501,0.1703,-0.4206,
16.032747,0.6220,0.6541,0.9537,0.3267,0.3916,0.3687,-0.0501,0.1703,-0.4206,
16.034846,0.6220,0.6541,0.9537,0.4277,0.2808,0.2841,-0.0501,0.1703,-0.4206,
16.099735,0.6865,0.8032,0.9547,0.4277,0.2808,0.2841,-0.0501,0.1703,-0.4206,
16.103964,0.6865,0.8032,0.9547,0.4277,0.2808,0.2841,0.4378,0.5796,-0.7105,
16.105940,0.6865,0.8032,0.9547,1.5818,1.0506,1.9505,0.4378,0.5796,-0.7105,
16.170867,0.5746,0.9978,0.9428,1.5818,1.0506,1.9505,0.4378,0.5796,-0.7105,
16.174984,0.5746,0.9978,0.9428,2.5417,2.1261,1.9717,0.4378,0.5796,-0.7105,
16.177097,0.5746,0.9978,0.9428,2.8432,1.6550,2.1060,0.4378,0.5796,-0.7105,
16.180373,0.5746,0.9978,0.9428,2.8432,1.6550,2.1060,1.0021,0.4298,-0.9346,
16.219950,0.5746,0.9978,0.9428,2.8432,1.6550,2.1060,1.3114,0.5121,-0.8513,
16.240044,0.5154,1.1699,1.1947,2.8432,1.6550,2.1060,1.3114,0.5121,-0.8513,
16.243925,0.5154,1.1699,1.1947,2.0900,3.0654,2.1570,1.3114,0.5121,-0.8513,
16.246292,0.5154,1.1699,1.1947,2.4236,2.5257,2.4339,1.3114,0.5121,-0.8513,
16.300316,0.5154,1.1699,1.1947,2.4236,2.5257,2.4339,2.5490,0.3988,-0.7274,
16.311084,0.5605,1.1417,0.9604,2.4236,2.5257,2.4339,2.5490,0.3988,-0.7274,
16.312242,0.5605,1.1417,0.9604,2.1145,3.4939,5.4353,2.5490,0.3988,-0.7274,
16.313216,0.5605,1.1417,0.9604,2.4413,2.6616,6.2906,2.5490,0.3988,-0.7274,
16.381397,0.5605,1.1417,0.9604,2.4413,2.6616,6.2906,3.2269,0.2501,-1.2887,
16.384740,0.5605,1.1417,0.9604,3.3546,1.6089,5.0763,3.2269,0.2501,-1.2887,
16.386878,0.2947,1.0801,0.6079,3.3546,1.6089,5.0763,3.2269,0.2501,-1.2887,
16.420452,0.2947,1.0801,0.6079,3.3546,1.6089,5.0763,2.9671,-0.5828,-1.3196,
16.450654,0.0566,0.9726,0.5034,3.3546,1.6089,5.0763,2.9671,-0.5828,-1.3196,
16.453438,0.0566,0.9726,0.5034,1.2651,0.4278,2.8181,2.9671,-0.5828,-1.3196,
16.455479,0.0566,0.9726,0.5034,1.7053,0.0592,4.0044,2.9671,-0.5828,-1.3196,
16.501930,0.0566,0.9726,0.5034,1.7053,0.0592,4.0044,2.9524,-1.2503,-0.9751,
16.522880,0.0465,0.8256,0.1018,1.7053,0.0592,4.0044,2.9524,-1.2503,-0.9751,
16.525680,0.0465,0.8256,0.1018,-0.1913,-1.1713,4.1806,2.9524,-1.2503,-0.9751,
16.527484,0.0465,0.8256,0.1018,0.1183,-1.1782,5.4406,2.9524,-1.2503,-0.9751,
16.581864,0.0465,0.8256,0.1018,0.1183,-1.1782,5.4406,2.9966,-2.0647,-0.6872,
16.592113,0.0465,0.8256,0.1018,0.3995,-2.4404,2.7851,2.9966,-2.0647,-0.6872,
16.594935,0.0465,0.8256,0.1018,0.9124,-2.1927,3.6497,2.9966,-2.0647,-0.6872,
16.597115,-0.0633,0.7196,-0.0044,0.9124,-2.1927,3.6497,2.9966,-2.0647,-0.6872,
16.621382,-0.0633,0.7196,-0.0044,0.9124,-2.1927,3.6497,2.0365,-1.6168,-0.9082,
16.662083,-0.0633,0.7196,-0.0044,0.3982,-2.9165,3.3044,2.0365,-1.6168,-0.9082,
16.666052,-0.2166,0.5489,-0.0487,0.3982,-2.9165,3.3044,2.0365,-1.6168,-0.9082,
16.701959,-0.2166,0.5489,-0.0487,0.3982,-2.9165,3.3044,1.5923,-2.0053,-1.0639,
16.732997,-0.2166,0.5489,-0.0487,-0.3787,-4.2123,3.3691,1.5923,-2.0053,-1.0639,
16.736641,-0.3662,0.3264,-0.0847,-0.3787,-4.2123,3.3691,1.5923,-2.0053,-1.0639,
16.738833,-0.3662,0.3264,-0.0847,0.3319,-3.8244,3.6882,1.5923,-2.0053,-1.0639,
16.782053,-0.3662,0.3264,-0.0847,0.3319,-3.8244,3.6882,1.2451,-1.8812,-1.1166,
16.802694,-0.3662,0.3264,-0.0847,-0.4008,-5.5664,3.5228,1.2451,-1.8812,-1.1166,
16.805994,-0.5789,0.0761,0.0397,-0.4008,-5.5664,3.5228,1.2451,-1.8812,-1.1166,
16.807562,-0.5789,0.0761,0.0397,0.3490,-5.1427,3.5087,1.2451,-1.8812,-1.1166,
16.821970,-0.5789,0.0761,0.0397,0.3490,-5.1427,3.5087,0.7138,-0.3439,-1.8974,
16.872616,-0.7340,-0.1768,-0.4687,0.3490,-5.1427,3.5087,0.7138,-0.3439,-1.8974,
16.876970,-0.7340,-0.1768,-0.4687,-1.0578,-6.9945,4.8896,0.7138,-0.3439,-1.8974,
16.879256,-0.7340,-0.1768,-0.4687,-0.5263,-6.2974,5.1949,0.7138,-0.3439,-1.8974,
16.902732,-0.7340,-0.1768,-0.4687,-0.5263,-6.2974,5.1949,0.6634,0.9217,-1.9374,
16.943152,-0.7519,-0.5660,-0.5229,-0.5263,-6.2974,5.1949,0.6634,0.9217,-1.9374,
16.946608,-0.7519,-0.5660,-0.5229,-1.8778,-8.2470,0.5922,0.6634,0.9217,-1.9374,
16.983235,-0.7519,-0.5660,-0.5229,-1.8778,-8.2470,0.5922,-0.4232,2.6101,-1.5194,
17.013526,-0.5997,-0.8725,-0.1868,-1.8778,-8.2470,0.5922,-0.4232,2.6101,-1.5194,
17.017509,-0.5997,-0.8725,-0.1868,-2.1872,-11.6264,0.5002,-0.4232,2.6101,-1.5194,
17.020336,-0.5997,-0.8725,-0.1868,-2.5399,-11.4880,0.7695,-0.4232,2.6101,-1.5194,
17.023139,-0.5997,-0.8725,-0.1868,-2.5399,-11.4880,0.7695,-1.6245,2.3106,-0.1977,
17.083601,-0.5997,-0.8725,-0.1868,-1.5612,-14.7079,3.9250,-1.6245,2.3106,-0.1977,
17.088582,-0.5997,-0.8725,-0.1868,-2.2005,-15.0875,3.6112,-1.6245,2.3106,-0.1977,
17.091815,-0.2801,-0.7460,0.2332,-2.2005,-15.0875,3.6112,-1.6245,2.3106,-0.1977,
17.103042,-0.2801,-0.7460,0.2332,-2.2005,-15.0875,3.6112,-2.7259,2.3964,0.5750,
17.154104,-0.2801,-0.7460,0.2332,0.2470,-14.3691,7.0223,-2.7259,2.3964,0.5750,
17.159149,-0.9242,-0.1082,1.0870,0.2470,-14.3691,7.0223,-2.7259,2.3964,0.5750,
17.162414,-0.9242,-0.1082,1.0870,-0.2629,-15.1003,5.4093,-2.7259,2.3964,0.5750,
17.184068,-0.9242,-0.1082,1.0870,-0.2629,-15.1003,5.4093,-6.0423,2.9133,0.1658,
17.224919,0.6672,1.0524,1.4590,-0.2629,-15.1003,5.4093,-6.0423,2.9133,0.1658,
17.229797,0.6672,1.0524,1.4590,-0.2629,-15.1003,5.4093,-4.2095,1.2848,3.5085,
17.233164,0.6672,1.0524,1.4590,-7.3917,-9.4101,11.7970,-4.2095,1.2848,3.5085,
17.294075,0.6672,1.0524,1.4590,6.6834,1.6978,14.0816,-4.2095,1.2848,3.5085,
17.297635,0.7185,0.9474,2.1285,6.6834,1.6978,14.0816,-4.2095,1.2848,3.5085,
17.299400,0.7185,0.9474,2.1285,6.0190,1.9692,11.8495,-4.2095,1.2848,3.5085,
17.305674,0.7185,0.9474,2.1285,6.0190,1.9692,11.8495,-6.2115,3.1117,1.9516,
17.364984,0.7185,0.9474,2.1285,6.3242,1.9452,15.8849,-6.2115,3.1117,1.9516,
17.368756,1.1492,0.9596,2.2353,6.3242,1.9452,15.8849,-6.2115,3.1117,1.9516,
17.370964,1.1492,0.9596,2.2353,5.3875,2.9516,14.5133,-6.2115,3.1117,1.9516,
17.383695,1.1492,0.9596,2.2353,5.3875,2.9516,14.5133,-3.9981,0.7309,3.7035,
17.425261,1.1492,0.9596,2.2353,5.3875,2.9516,14.5133,-1.1337,0.5667,4.9296,
17.436619,1.9324,1.3870,1.6571,5.3875,2.9516,14.5133,-1.1337,0.5667,4.9296,
17.439542,1.9324,1.3870,1.6571,8.3963,3.9727,14.8049,-1.1337,0.5667,4.9296,
17.442023,1.9324,1.3870,1.6571,7.4829,4.7372,14.3307,-1.1337,0.5667,4.9296,
17.505134,1.9324,1.3870,1.6571,14.5223,9.2309,8.4559,-1.1337,0.5667,4.9296,
17.509309,1.9324,1.3870,1.6571,14.5223,9.2309,8.4559,0.5507,0.8054,3.0736,
17.511057,1.8568,1.6894,1.2061,14.5223,9.2309,8.4559,0.5507,0.8054,3.0736,
17.543379,1.5852,1.6287,1.3270,14.5223,9.2309,8.4559,0.5507,0.8054,3.0736,
17.546679,1.6282,1.5578,1.2658,14.5223,9.2309,8.4559,0.5507,0.8054,3.0736,
17.548583,1.6282,1.5578,1.2658,14.5223,9.2309,8.4559,2.0000,0.3065,1.0190,
17.550765,1.6360,1.5647,1.2419,14.5223,9.2309,8.4559,2.0000,0.3065,1.0190,
17.552742,1.6208,1.5530,1.1954,14.5223,9.2309,8.4559,2.0000,0.3065,1.0190,
17.555207,1.6145,1.5451,1.1583,14.5223,9.2309,8.4559,2.0000,0.3065,1.0190,
17.557437,1.5993,1.5364,1.1221,14.5223,9.2309,8.4559,2.0000,0.3065,1.0190,
17.559492,1.5788,1.5349,1.0972,14.5223,9.2309,8.4559,2.0000,0.3065,1.0190,
17.561491,1.5539,1.5359,1.0708,14.5223,9.2309,8.4559,2.0000,0.3065,1.0190,
17.563086,1.5284,1.5364,1.0552,14.5223,9.2309,8.4559,2.0000,0.3065,1.0190,
17.564491,1.5006,1.5403,1.0448,14.5223,9.2309,8.4559,2.0000,0.3065,1.0190,
17.566272,1.4747,1.5427,1.0502,14.5223,9.2309,8.4559,2.0000,0.3065,1.0190,
17.570970,1.4575,1.5461,1.0659,14.5223,9.2309,8.4559,2.0000,0.3065,1.0190,
17.572691,1.4351,1.5407,1.0893,14.5223,9.2309,8.4559,2.0000,0.3065,1.0190,
17.573958,1.4184,1.5300,1.1168,14.5223,9.2309,8.4559,2.0000,0.3065,1.0190,
17.578846,1.4033,1.5227,1.1558,14.5223,9.2309,8.4559,2.0000,0.3065,1.0190,
17.580613,1.3852,1.5104,1.1896,14.5223,9.2309,8.4559,2.0000,0.3065,1.0190,
17.581804,1.3627,1.5031,1.2341,14.5223,9.2309,8.4559,2.0000,0.3065,1.0190,
17.584944,1.3461,1.4933,1.2898,14.5223,9.2309,8.4559,2.0000,0.3065,1.0190,
17.586038,1.3353,1.4826,1.3538,14.5223,9.2309,8.4559,2.0000,0.3065,1.0190,
17.589882,1.3163,1.4679,1.4198,14.5223,9.2309,8.4559,2.0000,0.3065,1.0190,
17.591069,1.3035,1.4517,1.4765,14.5223,9.2309,8.4559,2.0000,0.3065,1.0190,
17.594807,1.2816,1.4337,1.5274,14.5223,9.2309,8.4559,2.0000,0.3065,1.0190,
17.596214,1.2645,1.4092,1.5812,14.5223,9.2309,8.4559,2.0000,0.3065,1.0190,
17.599740,1.2454,1.3955,1.6276,14.5223,9.2309,8.4559,2.0000,0.3065,1.0190,
17.601320,1.2288,1.3779,1.6682,14.5223,9.2309,8.4559,2.0000,0.3065,1.0190,
17.603834,1.2102,1.3623,1.7009,14.5223,9.2309,8.4559,2.0000,0.3065,1.0190,
17.606126,1.1887,1.3452,1.7200,14.5223,9.2309,8.4559,2.0000,0.3065,1.0190,
17.607057,1.1887,1.3452,1.7200,13.4648,12.0594,3.9802,2.0000,0.3065,1.0190,
17.607916,1.1887,1.3452,1.7200,13.1484,11.4342,4.2316,2.0000,0.3065,1.0190,
17.608763,1.1887,1.3452,1.7200,12.7955,10.4995,4.8197,2.0000,0.3065,1.0190,
17.609732,1.1696,1.3242,1.7313,12.7955,10.4995,4.8197,2.0000,0.3065,1.0190,
17.612561,1.1486,1.2977,1.7352,12.7955,10.4995,4.8197,2.0000,0.3065,1.0190,
17.613927,1.1217,1.2763,1.7210,12.7955,10.4995,4.8197,2.0000,0.3065,1.0190,
17.616070,1.0904,1.2601,1.6902,12.7955,10.4995,4.8197,2.0000,0.3065,1.0190,
17.618520,1.0547,1.2543,1.6638,12.7955,10.4995,4.8197,2.0000,0.3065,1.0190,
17.621823,1.0185,1.2513,1.6261,12.7955,10.4995,4.8197,2.0000,0.3065,1.0190,
17.623667,1.0185,1.2513,1.6261,12.7955,10.4995,4.8197,2.8127,-0.2790,-0.3565,
17.624484,0.9853,1.2504,1.5870,12.7955,10.4995,4.8197,2.8127,-0.2790,-0.3565,
17.626056,0.9384,1.2567,1.5523,12.7955,10.4995,4.8197,2.8127,-0.2790,-0.3565,
17.628522,0.8958,1.2562,1.5279,12.7955,10.4995,4.8197,2.8127,-0.2790,-0.3565,
17.630982,0.8582,1.2582,1.5030,12.7955,10.4995,4.8197,2.8127,-0.2790,-0.3565,
17.633565,0.8343,1.2533,1.4848,12.7955,10.4995,4.8197,2.8127,-0.2790,-0.3565,
17.636016,0.8166,1.2454,1.4673,12.7955,10.4995,4.8197,2.8127,-0.2790,-0.3565,
17.638706,0.7985,1.2322,1.4487,12.7955,10.4995,4.8197,2.8127,-0.2790,-0.3565,
17.706278,0.7985,1.2322,1.4487,12.7955,10.4995,4.8197,4.0014,-1.0136,-0.6852,
17.746082,0.5779,0.8255,1.1744,12.7955,10.4995,4.8197,4.0014,-1.0136,-0.6852,
17.750054,0.5779,0.8255,1.1744,8.5364,7.5957,6.3412,4.0014,-1.0136,-0.6852,
17.752414,0.5779,0.8255,1.1744,8.5364,7.5957,6.3412,5.4258,-2.1498,0.1361,
17.754835,0.5779,0.8255,1.1744,8.4723,6.4648,7.5093,5.4258,-2.1498,0.1361,
17.757275,0.5779,0.8255,1.1744,8.2001,5.5034,9.3428,5.4258,-2.1498,0.1361,
17.817103,0.5779,0.8255,1.1744,-0.3400,-1.4707,10.6030,5.4258,-2.1498,0.1361,
17.821360,0.5514,0.3780,0.7095,-0.3400,-1.4707,10.6030,5.4258,-2.1498,0.1361,
17.823515,0.5514,0.3780,0.7095,-0.3783,-1.3013,13.0428,5.4258,-2.1498,0.1361,
17.825992,0.5514,0.3780,0.7095,-0.3783,-1.3013,13.0428,4.7640,-2.6799,0.0260,
17.891982,0.3390,-0.1928,0.1477,-0.3783,-1.3013,13.0428,4.7640,-2.6799,0.0260,
17.895160,0.3390,-0.1928,0.1477,-0.3034,-5.1418,10.5923,4.7640,-2.6799,0.0260,
17.896665,0.3390,-0.1928,0.1477,0.2693,-4.4602,12.2102,4.7640,-2.6799,0.0260,
17.905909,0.3390,-0.1928,0.1477,0.2693,-4.4602,12.2102,3.5914,-2.1913,-0.5309,
17.945924,0.3390,-0.1928,0.1477,0.2693,-4.4602,12.2102,1.8217,-1.7690,-0.8989,
17.956482,0.3390,-0.1928,0.1477,-1.1027,-9.3372,7.8763,1.8217,-1.7690,-0.8989,
17.958640,0.2089,-0.6803,-0.1497,-1.1027,-9.3372,7.8763,1.8217,-1.7690,-0.8989,
17.959376,0.2089,-0.6803,-0.1497,-0.3484,-8.8518,8.5330,1.8217,-1.7690,-0.8989,
18.026519,0.2089,-0.6803,-0.1497,-0.3484,-8.8518,8.5330,0.8889,-0.9969,-0.8656,
18.028513,-0.0679,-1.0734,-0.5030,-0.3484,-8.8518,8.5330,0.8889,-0.9969,-0.8656,
18.029655,-0.0679,-1.0734,-0.5030,-0.9068,-13.1697,6.0535,0.8889,-0.9969,-0.8656,
18.096098,-0.1066,-1.1269,-0.6750,-0.9068,-13.1697,6.0535,0.8889,-0.9969,-0.8656,
18.098255,-0.1066,-1.1269,-0.6750,-3.1476,-16.6242,2.7915,0.8889,-0.9969,-0.8656,
18.099130,-0.1066,-1.1269,-0.6750,-2.8442,-16.3656,2.8066,0.8889,-0.9969,-0.8656,
18.105975,-0.1066,-1.1269,-0.6750,-2.8442,-16.3656,2.8066,-0.2901,-1.0626,0.5104,
18.146207,-0.1066,-1.1269,-0.6750,-2.8442,-16.3656,2.8066,-2.0290,-1.5973,2.2800,
18.166330,0.3211,-0.9511,-0.4439,-2.8442,-16.3656,2.8066,-2.0290,-1.5973,2.2800,
18.169098,0.3211,-0.9511,-0.4439,-3.0885,-16.7282,1.0335,-2.0290,-1.5973,2.2800,
18.172915,0.3211,-0.9511,-0.4439,-3.1047,-16.8842,0.6533,-2.0290,-1.5973,2.2800,
18.226145,0.3211,-0.9511,-0.4439,-3.1047,-16.8842,0.6533,-4.5607,-1.8118,2.3799,
18.236749,0.6518,-0.7235,0.2729,-3.1047,-16.8842,0.6533,-4.5607,-1.8118,2.3799,
18.239449,0.6518,-0.7235,0.2729,0.9006,-15.7048,2.0937,-4.5607,-1.8118,2.3799,
18.240926,0.6518,-0.7235,0.2729,0.6985,-16.4161,0.8338,-4.5607,-1.8118,2.3799,
18.306890,1.3054,-0.3044,1.7263,0.6985,-16.4161,0.8338,-4.5607,-1.8118,2.3799,
18.309722,1.3054,-0.3044,1.7263,0.6985,-16.4161,0.8338,-7.1626,-1.9628,2.3785,
18.310782,1.3054,-0.3044,1.7263,3.5051,-14.8591,5.8763,-7.1626,-1.9628,2.3785,
18.347374,1.3054,-0.3044,1.7263,3.5051,-14.8591,5.8763,-7.4982,-1.7594,2.4562,
18.377368,1.9100,0.5401,2.4280,3.5051,-14.8591,5.8763,-7.4982,-1.7594,2.4562,
18.379932,1.9100,0.5401,2.4280,9.1578,-10.9283,17.4624,-7.4982,-1.7594,2.4562,
18.381642,1.9100,0.5401,2.4280,8.2153,-10.2088,15.1783,-7.4982,-1.7594,2.4562,
18.427499,1.9100,0.5401,2.4280,8.2153,-10.2088,15.1783,-6.4778,-1.6476,1.6720,
18.447308,1.3345,1.2379,2.8097,8.2153,-10.2088,15.1783,-6.4778,-1.6476,1.6720,
18.450086,1.3345,1.2379,2.8097,13.0480,-0.8030,20.4203,-6.4778,-1.6476,1.6720,
18.450909,1.3345,1.2379,2.8097,12.4012,0.4813,18.9644,-6.4778,-1.6476,1.6720,
18.507403,1.3345,1.2379,2.8097,12.4012,0.4813,18.9644,-4.5017,-1.0042,0.6855,
18.518503,0.8339,1.6017,2.2319,12.4012,0.4813,18.9644,-4.5017,-1.0042,0.6855,
18.521034,0.8339,1.6017,2.2319,6.3223,8.3872,21.7613,-4.5017,-1.0042,0.6855,
18.521866,0.8339,1.6017,2.2319,5.9261,9.0986,21.2600,-4.5017,-1.0042,0.6855,
18.547991,0.8339,1.6017,2.2319,5.9261,9.0986,21.2600,-1.4309,-0.2352,0.3891,
18.587898,0.7135,1.1901,1.1656,5.9261,9.0986,21.2600,-1.4309,-0.2352,0.3891,
18.590047,0.7135,1.1901,1.1656,0.9236,12.8686,15.2422,-1.4309,-0.2352,0.3891,
18.628356,0.7135,1.1901,1.1656,0.9236,12.8686,15.2422,-0.1740,0.5961,-0.7501,
18.658383,0.4709,0.6849,0.8773,0.9236,12.8686,15.2422,-0.1740,0.5961,-0.7501,
18.660399,0.4709,0.6849,0.8773,-0.0810,8.5894,4.5724,-0.1740,0.5961,-0.7501,
18.661731,0.4709,0.6849,0.8773,0.2391,8.2359,4.2759,-0.1740,0.5961,-0.7501,
18.709703,0.4709,0.6849,0.8773,0.2391,8.2359,4.2759,0.2154,0.3968,-0.4963,
18.729528,0.4675,0.4875,0.8262,0.2391,8.2359,4.2759,0.2154,0.3968,-0.4963,
18.731597,0.4675,0.4875,0.8262,-1.9002,3.0453,1.3297,0.2154,0.3968,-0.4963,
18.732516,0.4675,0.4875,0.8262,-1.7608,2.7804,1.3231,0.2154,0.3968,-0.4963,
18.748169,0.4675,0.4875,0.8262,-1.7608,2.7804,1.3231,0.6736,0.2447,0.0064,
18.799032,0.5231,0.4197,0.6644,-1.7608,2.7804,1.3231,0.6736,0.2447,0.0064,
18.802197,0.5231,0.4197,0.6644,-1.7013,0.6438,0.8578,0.6736,0.2447,0.0064,
18.803301,0.5231,0.4197,0.6644,-1.6080,0.4426,0.8989,0.6736,0.2447,0.0064,
18.829117,0.5231,0.4197,0.6644,-1.6080,0.4426,0.8989,0.7610,0.3563,0.2076,
18.869409,0.5740,0.3873,0.5630,-1.6080,0.4426,0.8989,0.7610,0.3563,0.2076,
18.872168,0.5740,0.3873,0.5630,-0.9788,-0.3628,-0.6431,0.7610,0.3563,0.2076,
18.908895,0.5740,0.3873,0.5630,-0.9788,-0.3628,-0.6431,0.5112,0.0723,0.2105,
18.939067,0.6298,0.3978,0.6509,-0.9788,-0.3628,-0.6431,0.5112,0.0723,0.2105,
18.940969,0.6298,0.3978,0.6509,-0.4872,-0.7753,-1.5283,0.5112,0.0723,0.2105,
18.941738,0.6298,0.3978,0.6509,-0.5045,-0.7971,-1.4579,0.5112,0.0723,0.2105,
18.948976,0.6298,0.3978,0.6509,-0.5045,-0.7971,-1.4579,0.1867,0.0762,0.0915,
19.009710,0.6078,0.4004,0.6779,-0.5045,-0.7971,-1.4579,0.1867,0.0762,0.0915,
19.012389,0.6078,0.4004,0.6779,0.0509,-0.7113,-0.5756,0.1867,0.0762,0.0915,
19.014087,0.6078,0.4004,0.6779,0.0901,-0.7307,-0.5803,0.1867,0.0762,0.0915,
19.029275,0.6078,0.4004,0.6779,0.0901,-0.7307,-0.5803,0.0675,0.1574,-0.0418,
19.080213,0.5942,0.4200,0.6709,0.0901,-0.7307,-0.5803,0.0675,0.1574,-0.0418,
19.081670,0.5942,0.4200,0.6709,-0.0624,-0.7197,-0.3471,0.0675,0.1574,-0.0418,
19.082383,0.5942,0.4200,0.6709,-0.0630,-0.7318,-0.3239,0.0675,0.1574,-0.0418,
19.110386,0.5942,0.4200,0.6709,-0.0630,-0.7318,-0.3239,0.0449,-0.0141,-0.0278,
19.150029,0.5942,0.4200,0.6709,-0.0630,-0.7318,-0.3239,0.0150,0.0296,-0.0177,
19.151794,0.5779,0.4493,0.7249,-0.0630,-0.7318,-0.3239,0.0150,0.0296,-0.0177,
19.152557,0.5779,0.4493,0.7249,-0.1790,-0.5269,-0.4008,0.0150,0.0296,-0.0177,
19.220148,0.5674,0.4497,0.7139,-0.1790,-0.5269,-0.4008,0.0150,0.0296,-0.0177,
19.223535,0.5674,0.4497,0.7139,-0.3226,-0.2455,0.1246,0.0150,0.0296,-0.0177,
19.224905,0.5674,0.4497,0.7139,-0.2909,-0.2562,0.1098,0.0150,0.0296,-0.0177,
19.230232,0.5674,0.4497,0.7139,-0.2909,-0.2562,0.1098,0.0940,0.1152,0.0660,
19.291150,0.6263,0.4440,0.6505,-0.2909,-0.2562,0.1098,0.0940,0.1152,0.0660,
19.293107,0.6263,0.4440,0.6505,-0.3740,-0.2547,-0.0053,0.0940,0.1152,0.0660,
19.293945,0.6263,0.4440,0.6505,-0.3820,-0.2564,0.0108,0.0940,0.1152,0.0660,
19.310977,0.6263,0.4440,0.6505,-0.3820,-0.2564,0.0108,0.1434,0.0526,0.1449,
19.350898,0.6263,0.4440,0.6505,-0.3820,-0.2564,0.0108,-0.0501,0.0839,-0.0284,
19.362034,0.6049,0.4347,0.6906,-0.3820,-0.2564,0.0108,-0.0501,0.0839,-0.0284,
19.364584,0.6049,0.4347,0.6906,0.1906,-0.3112,-0.5963,-0.0501,0.0839,-0.0284,
19.365882,0.6049,0.4347,0.6906,0.2222,-0.2964,-0.6223,-0.0501,0.0839,-0.0284,
19.431345,0.5920,0.4463,0.6796,0.2222,-0.2964,-0.6223,-0.0501,0.0839,-0.0284,
19.433327,0.5920,0.4463,0.6796,0.0390,-0.3723,-0.2537,-0.0501,0.0839,-0.0284,
19.434192,0.5920,0.4463,0.6796,0.0390,-0.3723,-0.2537,0.0036,0.0607,0.0252,
19.501835,0.6089,0.4600,0.7003,0.0390,-0.3723,-0.2537,0.0036,0.0607,0.0252,
19.504508,0.6089,0.4600,0.7003,-0.0812,-0.2286,-0.3192,0.0036,0.0607,0.0252,
19.505651,0.6089,0.4600,0.7003,-0.0909,-0.1875,-0.2782,0.0036,0.0607,0.0252,
19.512357,0.6089,0.4600,0.7003,-0.0909,-0.1875,-0.2782,-0.0096,-0.0208,0.0624,
19.557862,0.6089,0.4600,0.7003,-0.0909,-0.1875,-0.2782,-0.0103,0.0385,-0.0033,
19.560230,0.5869,0.4554,0.7036,-0.0909,-0.1875,-0.2782,-0.0103,0.0385,-0.0033,
19.561870,0.5776,0.4476,0.6919,-0.0909,-0.1875,-0.2782,-0.0103,0.0385,-0.0033,
19.563316,0.5786,0.4545,0.6978,-0.0909,-0.1875,-0.2782,-0.0103,0.0385,-0.0033,
19.568383,0.5727,0.4530,0.6919,-0.0909,-0.1875,-0.2782,-0.0103,0.0385,-0.0033,
19.571914,0.5751,0.4554,0.6919,-0.0909,-0.1875,-0.2782,-0.0103,0.0385,-0.0033,
19.573737,0.5771,0.4530,0.6924,-0.0909,-0.1875,-0.2782,-0.0103,0.0385,-0.0033,
19.575746,0.5751,0.4530,0.6919,-0.0909,-0.1875,-0.2782,-0.0103,0.0385,-0.0033,
19.576684,0.5781,0.4588,0.6880,-0.0909,-0.1875,-0.2782,-0.0103,0.0385,-0.0033,
19.578402,0.5786,0.4574,0.6924,-0.0909,-0.1875,-0.2782,-0.0103,0.0385,-0.0033,
19.582843,0.5790,0.4525,0.6904,-0.0909,-0.1875,-0.2782,-0.0103,0.0385,-0.0033,
19.584576,0.5825,0.4549,0.6865,-0.0909,-0.1875,-0.2782,-0.0103,0.0385,-0.0033,
19.585768,0.5829,0.4584,0.6865,-0.0909,-0.1875,-0.2782,-0.0103,0.0385,-0.0033,
19.591385,0.5825,0.4569,0.6836,-0.0909,-0.1875,-0.2782,-0.0103,0.0385,-0.0033,
19.592622,0.5839,0.4554,0.6856,-0.0909,-0.1875,-0.2782,-0.0103,0.0385,-0.0033,
19.593350,0.5883,0.4510,0.6851,-0.0909,-0.1875,-0.2782,-0.0103,0.0385,-0.0033,
19.595542,0.5908,0.4535,0.6895,-0.0909,-0.1875,-0.2782,-0.0103,0.0385,-0.0033,
19.598701,0.5947,0.4515,0.6924,-0.0909,-0.1875,-0.2782,-0.0103,0.0385,-0.0033,
19.600419,0.5942,0.4505,0.6953,-0.0909,-0.1875,-0.2782,-0.0103,0.0385,-0.0033,
19.603040,0.5927,0.4471,0.6958,-0.0909,-0.1875,-0.2782,-0.0103,0.0385,-0.0033,
19.605591,0.5942,0.4515,0.6953,-0.0909,-0.1875,-0.2782,-0.0103,0.0385,-0.0033,
19.609013,0.5937,0.4471,0.6978,-0.0909,-0.1875,-0.2782,-0.0103,0.0385,-0.0033,
19.613287,0.5947,0.4462,0.7100,-0.0909,-0.1875,-0.2782,-0.0103,0.0385,-0.0033,
19.614741,0.5922,0.4510,0.7095,-0.0909,-0.1875,-0.2782,-0.0103,0.0385,-0.0033,
19.616391,0.5912,0.4520,0.7109,-0.0909,-0.1875,-0.2782,-0.0103,0.0385,-0.0033,
19.618813,0.5927,0.4510,0.7202,-0.0909,-0.1875,-0.2782,-0.0103,0.0385,-0.0033,
19.622325,0.5937,0.4486,0.7252,-0.0909,-0.1875,-0.2782,-0.0103,0.0385,-0.0033,
19.623591,0.5932,0.4442,0.7246,-0.0909,-0.1875,-0.2782,-0.0103,0.0385,-0.0033,
19.624294,0.5932,0.4442,0.7246,0.0707,-0.0331,-0.0796,-0.0103,0.0385,-0.0033,
19.625384,0.5932,0.4442,0.7246,0.0743,-0.0306,-0.0797,-0.0103,0.0385,-0.0033,
19.626085,0.5932,0.4442,0.7246,0.0712,-0.0269,-0.0755,-0.0103,0.0385,-0.0033,
19.626928,0.5903,0.4466,0.7241,0.0712,-0.0269,-0.0755,-0.0103,0.0385,-0.0033,
19.628200,0.5888,0.4510,0.7266,0.0712,-0.0269,-0.0755,-0.0103,0.0385,-0.0033,
19.632070,0.5888,0.4510,0.7266,0.0712,-0.0269,-0.0755,0.0005,0.0099,0.0103,
19.632921,0.5873,0.4466,0.7325,0.0712,-0.0269,-0.0755,0.0005,0.0099,0.0103,
19.633519,0.5849,0.4540,0.7335,0.0712,-0.0269,-0.0755,0.0005,0.0099,0.0103,
19.636271,0.5825,0.4540,0.7310,0.0712,-0.0269,-0.0755,0.0005,0.0099,0.0103,
19.638694,0.5834,0.4530,0.7310,0.0712,-0.0269,-0.0755,0.0005,0.0099,0.0103,
19.641240,0.5790,0.4564,0.7271,0.0712,-0.0269,-0.0755,0.0005,0.0099,0.0103,
19.644296,0.5761,0.4525,0.7217,0.0712,-0.0269,-0.0755,0.0005,0.0099,0.0103,
19.645954,0.5810,0.4505,0.7193,0.0712,-0.0269,-0.0755,0.0005,0.0099,0.0103,
19.648681,0.5795,0.4525,0.7114,0.0712,-0.0269,-0.0755,0.0005,0.0099,0.0103,
19.650772,0.5805,0.4501,0.7129,0.0712,-0.0269,-0.0755,0.0005,0.0099,0.0103,
19.654251,0.5829,0.4481,0.7114,0.0712,-0.0269,-0.0755,0.0005,0.0099,0.0103,
19.655657,0.5834,0.4559,0.7105,0.0712,-0.0269,-0.0755,0.0005,0.0099,0.0103,
19.658524,0.5839,0.4520,0.7066,0.0712,-0.0269,-0.0755,0.0005,0.0099,0.0103,
19.660702,0.5844,0.4501,0.7041,0.0712,-0.0269,-0.0755,0.0005,0.0099,0.0103,
19.663672,0.5849,0.4471,0.7056,0.0712,-0.0269,-0.0755,0.0005,0.0099,0.0103,
19.666241,0.5878,0.4501,0.7066,0.0712,-0.0269,-0.0755,0.0005,0.0099,0.0103,
19.668370,0.5873,0.4554,0.7070,0.0712,-0.0269,-0.0755,0.0005,0.0099,0.0103,
19.671240,0.5878,0.4530,0.7056,0.0712,-0.0269,-0.0755,0.0005,0.0099,0.0103,
19.674299,0.5864,0.4481,0.7075,0.0712,-0.0269,-0.0755,0.0005,0.0099,0.0103,
19.678351,0.5883,0.4505,0.7085,0.0712,-0.0269,-0.0755,0.0005,0.0099,0.0103,
19.679160,0.5927,0.4535,0.7061,0.0712,-0.0269,-0.0755,0.0005,0.0099,0.0103,
19.681534,0.5932,0.4525,0.7070,0.0712,-0.0269,-0.0755,0.0005,0.0099,0.0103,
19.683471,0.5981,0.4525,0.7046,0.0712,-0.0269,-0.0755,0.0005,0.0099,0.0103,
19.694166,0.5981,0.4525,0.7046,-0.1417,-0.0875,-0.0930,0.0005,0.0099,0.0103,
19.695413,0.5981,0.4525,0.7046,-0.1208,-0.0771,-0.0875,0.0005,0.0099,0.0103,
19.712236,0.5981,0.4525,0.7046,-0.1208,-0.0771,-0.0875,0.0037,0.0202,-0.0001,
19.753701,0.5981,0.4525,0.7046,-0.1208,-0.0771,-0.0875,0.0332,0.0373,-0.0036,
19.783335,0.5989,0.4590,0.6987,-0.1208,-0.0771,-0.0875,0.0332,0.0373,-0.0036,
19.787051,0.5989,0.4590,0.6987,-0.0949,-0.0856,0.0718,0.0332,0.0373,-0.0036,
19.789218,0.5989,0.4590,0.6987,-0.0730,-0.0842,0.0595,0.0332,0.0373,-0.0036,
19.833053,0.5989,0.4590,0.6987,-0.0730,-0.0842,0.0595,0.0250,0.0256,-0.0245,
19.853970,0.5989,0.4590,0.6987,0.0496,-0.0196,-0.0812,0.0250,0.0256,-0.0245,
19.856682,0.6132,0.4999,0.7433,0.0496,-0.0196,-0.0812,0.0250,0.0256,-0.0245,
19.858316,0.6132,0.4999,0.7433,0.0566,-0.0318,-0.0733,0.0250,0.0256,-0.0245,
19.912379,0.6132,0.4999,0.7433,0.0566,-0.0318,-0.0733,0.0383,0.0748,-0.0892,
19.922476,0.8561,0.6983,0.9245,0.0566,-0.0318,-0.0733,0.0383,0.0748,-0.0892,
19.923989,0.8561,0.6983,0.9245,0.2037,0.3058,0.3134,0.0383,0.0748,-0.0892,
19.924877,0.8561,0.6983,0.9245,0.2446,0.1946,0.2774,0.0383,0.0748,-0.0892,
19.952698,0.8561,0.6983,0.9245,0.2446,0.1946,0.2774,0.1091,0.6466,-1.0401,
19.993683,0.5885,0.8534,1.0956,0.2446,0.1946,0.2774,0.1091,0.6466,-1.0401,
19.995403,0.5885,0.8534,1.0956,3.0538,1.7943,1.8622,0.1091,0.6466,-1.0401,
20.032951,0.5885,0.8534,1.0956,3.0538,1.7943,1.8622,0.5553,1.8020,-2.5213,
20.063183,0.2285,1.1479,1.0922,3.0538,1.7943,1.8622,0.5553,1.8020,-2.5213,
20.064894,0.2285,1.1479,1.0922,1.4851,2.7115,3.1847,0.5553,1.8020,-2.5213,
20.065709,0.2285,1.1479,1.0922,2.5854,2.0039,3.1042,0.5553,1.8020,-2.5213,
20.113593,0.2285,1.1479,1.0922,2.5854,2.0039,3.1042,1.8281,1.3335,-1.6077,
20.133735,0.2285,1.1479,1.0922,-0.0767,4.1067,3.3378,1.8281,1.3335,-1.6077,
20.135862,0.2285,1.1479,1.0922,0.4569,3.2603,3.9624,1.8281,1.3335,-1.6077,
20.137700,0.5130,1.4407,1.1909,0.4569,3.2603,3.9624,1.8281,1.3335,-1.6077,
20.153164,0.5130,1.4407,1.1909,0.4569,3.2603,3.9624,3.0679,0.6983,-0.8451,
20.203837,0.6144,1.4128,0.8745,0.4569,3.2603,3.9624,3.0679,0.6983,-0.8451,
20.205900,0.6144,1.4128,0.8745,3.6166,5.1801,5.8892,3.0679,0.6983,-0.8451,
20.206813,0.6144,1.4128,0.8745,4.1220,4.2440,7.2443,3.0679,0.6983,-0.8451,
20.233593,0.6144,1.4128,0.8745,4.1220,4.2440,7.2443,3.9751,0.3160,-1.5138,
20.273773,0.2650,1.2934,0.5544,4.1220,4.2440,7.2443,3.9751,0.3160,-1.5138,
20.275602,0.2650,1.2934,0.5544,5.7899,3.2977,5.6747,3.9751,0.3160,-1.5138,
20.313920,0.2650,1.2934,0.5544,5.7899,3.2977,5.6747,3.6600,-0.3373,-1.8053,
20.344531,0.0305,0.9375,0.4927,5.7899,3.2977,5.6747,3.6600,-0.3373,-1.8053,
20.346686,0.0305,0.9375,0.4927,3.0706,1.7966,4.0511,3.6600,-0.3373,-1.8053,
20.347370,0.0305,0.9375,0.4927,3.7368,1.7359,5.4098,3.6600,-0.3373,-1.8053,
20.354365,0.0305,0.9375,0.4927,3.7368,1.7359,5.4098,3.2845,-0.5363,-1.6459,
20.414669,-0.1446,0.3979,0.2880,3.7368,1.7359,5.4098,3.2845,-0.5363,-1.6459,
20.416963,-0.1446,0.3979,0.2880,2.1262,-1.5395,6.0920,3.2845,-0.5363,-1.6459,
20.417816,-0.1446,0.3979,0.2880,2.7108,-1.1684,7.2174,3.2845,-0.5363,-1.6459,
20.433958,-0.1446,0.3979,0.2880,2.7108,-1.1684,7.2174,2.9808,-0.9670,-1.2715,
20.484493,-0.1446,0.3979,0.2880,1.5948,-5.9041,6.1047,2.9808,-0.9670,-1.2715,
20.487245,-0.1446,0.3979,0.2880,2.2451,-5.3303,6.6341,2.9808,-0.9670,-1.2715,
20.488219,-0.1991,-0.0002,0.0347,2.2451,-5.3303,6.6341,2.9808,-0.9670,-1.2715,
20.514560,-0.1991,-0.0002,0.0347,2.2451,-5.3303,6.6341,2.2554,-1.7974,-1.1156,
20.554518,-0.3819,-0.2049,0.1477,2.2451,-5.3303,6.6341,2.2554,-1.7974,-1.1156,
20.555920,-0.3819,-0.2049,0.1477,2.2451,-5.3303,6.6341,1.1193,-1.1196,-1.2434,
20.556590,-0.3819,-0.2049,0.1477,2.4002,-8.6503,4.3270,1.1193,-1.1196,-1.2434,
20.625587,-0.6351,-0.5722,-0.5397,2.4002,-8.6503,4.3270,1.1193,-1.1196,-1.2434,
20.627912,-0.6351,-0.5722,-0.5397,1.1532,-10.0935,5.5121,1.1193,-1.1196,-1.2434,
20.629359,-0.6351,-0.5722,-0.5397,1.5483,-9.4141,5.8595,1.1193,-1.1196,-1.2434,
20.639722,-0.6351,-0.5722,-0.5397,1.5483,-9.4141,5.8595,1.3735,0.1931,-1.3948,
20.695972,-0.8718,-0.5762,-0.6243,1.5483,-9.4141,5.8595,1.3735,0.1931,-1.3948,
20.698091,-0.8718,-0.5762,-0.6243,-0.6076,-12.2406,-0.3741,1.3735,0.1931,-1.3948,
20.699415,-0.8718,-0.5762,-0.6243,-0.6066,-11.8703,-0.1412,1.3735,0.1931,-1.3948,
20.718366,-0.8718,-0.5762,-0.6243,-0.6066,-11.8703,-0.1412,-0.3666,1.3948,-1.0232,
20.755762,-0.8718,-0.5762,-0.6243,-0.6066,-11.8703,-0.1412,-1.7124,1.7748,-0.3726,
20.767955,-0.7617,-0.6608,-0.1523,-0.6066,-11.8703,-0.1412,-1.7124,1.7748,-0.3726,
20.770638,-0.7617,-0.6608,-0.1523,-3.0487,-11.8805,-0.9791,-1.7124,1.7748,-0.3726,
20.771753,-0.7617,-0.6608,-0.1523,-3.3033,-11.9911,-1.0295,-1.7124,1.7748,-0.3726,
20.835864,-0.7617,-0.6608,-0.1523,-3.3033,-11.9911,-1.0295,-2.8109,2.6131,-0.3285,
20.838517,-0.7617,-0.6608,-0.1523,-2.5844,-12.9810,3.4468,-2.8109,2.6131,-0.3285,
20.839492,-0.8060,-0.8615,0.2065,-2.5844,-12.9810,3.4468,-2.8109,2.6131,-0.3285,
20.906804,-0.7509,-0.7604,1.1633,-2.5844,-12.9810,3.4468,-2.8109,2.6131,-0.3285,
20.910030,-0.7509,-0.7604,1.1633,-3.4445,-15.3588,6.3550,-2.8109,2.6131,-0.3285,
20.911146,-0.7509,-0.7604,1.1633,-4.0370,-15.9963,5.2241,-2.8109,2.6131,-0.3285,
20.915508,-0.7509,-0.7604,1.1633,-4.0370,-15.9963,5.2241,-4.8491,2.3351,1.0253,
20.955903,-0.7509,-0.7604,1.1633,-4.0370,-15.9963,5.2241,-5.6970,1.8687,3.9462,
20.976275,-0.7509,-0.7604,1.1633,-4.3825,-15.6203,12.8200,-5.6970,1.8687,3.9462,
20.978930,0.6217,-0.0542,2.1391,-4.3825,-15.6203,12.8200,-5.6970,1.8687,3.9462,
20.979925,0.6217,-0.0542,2.1391,-5.9449,-15.8865,10.8766,-5.6970,1.8687,3.9462,
21.036450,0.6217,-0.0542,2.1391,-5.9449,-15.8865,10.8766,-5.0856,2.4370,5.0425,
21.046644,1.2955,0.6560,2.7046,-5.9449,-15.8865,10.8766,-5.0856,2.4370,5.0425,
21.049689,1.2955,0.6560,2.7046,5.6843,-8.6966,18.5960,-5.0856,2.4370,5.0425,
21.050888,1.2955,0.6560,2.7046,4.6982,-7.6091,16.3531,-5.0856,2.4370,5.0425,
21.117858,1.2955,0.6560,2.7046,4.6982,-7.6091,16.3531,-5.8073,2.5468,4.2742,
21.119644,1.2955,0.6560,2.7046,10.5920,0.9002,19.9063,-5.8073,2.5468,4.2742,
21.120456,1.9032,0.9287,3.0570,10.5920,0.9002,19.9063,-5.8073,2.5468,4.2742,
