
time,gFx,gFy,gFz,ax,ay,az,wx,wy,wz,
0.052175,-0.0286,0.3674,0.8537,0.0000,0.0000,0.0000,0.0000,0.0000,0.0000,
0.052766,-0.0135,0.3633,0.9126,0.0000,0.0000,0.0000,0.0000,0.0000,0.0000,
0.100182,-0.0301,0.3525,0.8999,0.0000,0.0000,0.0000,0.0000,0.0000,0.0000,
0.100802,-0.0154,0.3657,0.9457,0.0000,0.0000,0.0000,0.0000,0.0000,0.0000,
0.106393,-0.0154,0.3657,0.9457,0.0000,0.0000,0.0000,0.2919,0.0775,0.0238,
0.153830,0.0273,0.3520,0.9557,0.0000,0.0000,0.0000,0.2919,0.0775,0.0238,
0.154402,-0.0010,0.3515,0.8701,0.0000,0.0000,0.0000,0.2919,0.0775,0.0238,
0.154728,-0.0328,0.4178,0.7618,0.0000,0.0000,0.0000,0.2919,0.0775,0.0238,
0.167962,-0.0328,0.4178,0.7618,0.0000,0.0000,0.0000,0.3715,0.6088,-0.0493,
0.168895,-0.1046,0.4374,0.8207,0.0000,0.0000,0.0000,0.3715,0.6088,-0.0493,
0.189203,-0.1181,0.4227,1.0177,0.0000,0.0000,0.0000,0.3715,0.6088,-0.0493,
0.190282,-0.1181,0.4227,1.0177,0.0000,0.0000,0.0000,0.3715,0.6088,-0.0493,
0.234601,-0.1140,0.3977,1.0050,0.0000,0.0000,0.0000,0.3715,0.6088,-0.0493,
0.235633,-0.0675,0.3498,0.9703,0.0000,0.0000,0.0000,0.3715,0.6088,-0.0493,
0.247848,-0.0675,0.3498,0.9703,0.0000,0.0000,0.0000,-0.0160,0.4897,-0.0513,
0.255077,-0.0682,0.3985,1.0207,0.0000,0.0000,0.0000,-0.0160,0.4897,-0.0513,
0.257383,-0.0682,0.3985,1.0207,-0.1955,0.3151,-0.3162,-0.0160,0.4897,-0.0513,
0.300852,-0.0748,0.4195,0.9341,-0.1955,0.3151,-0.3162,-0.0160,0.4897,-0.0513,
0.302177,-0.0172,0.4774,0.8374,-0.1955,0.3151,-0.3162,-0.0160,0.4897,-0.0513,
0.307327,-0.0172,0.4774,0.8374,-0.1955,0.3151,-0.3162,0.3674,-0.3213,-0.0490,
0.328590,-0.0172,0.4774,0.8374,-0.2822,-0.1329,0.6686,0.3674,-0.3213,-0.0490,
0.329743,-0.0795,0.4735,0.8002,-0.2822,-0.1329,0.6686,0.3674,-0.3213,-0.0490,
0.330732,-0.0411,0.4004,0.8613,-0.2822,-0.1329,0.6686,0.3674,-0.3213,-0.0490,
0.353915,-0.0145,0.4364,0.9623,-0.2822,-0.1329,0.6686,0.3674,-0.3213,-0.0490,
0.367582,-0.0145,0.4364,0.9623,-0.2822,-0.1329,0.6686,0.1704,-0.2615,-0.0008,
0.368721,-0.0194,0.4256,0.8842,-0.2822,-0.1329,0.6686,0.1704,-0.2615,-0.0008,
0.398022,-0.0291,0.4310,0.7848,-0.2822,-0.1329,0.6686,0.1704,-0.2615,-0.0008,
0.399138,-0.0291,0.4310,0.7848,-0.1074,0.3065,-0.5305,0.1704,-0.2615,-0.0008,
0.434830,-0.0335,0.4251,0.8082,-0.1074,0.3065,-0.5305,0.1704,-0.2615,-0.0008,
0.435827,-0.0486,0.3907,0.8620,-0.1074,0.3065,-0.5305,0.1704,-0.2615,-0.0008,
0.447579,-0.0486,0.3907,0.8620,-0.1074,0.3065,-0.5305,0.0830,0.4055,0.0205,
0.454885,-0.0910,0.4034,0.8515,-0.1074,0.3065,-0.5305,0.0830,0.4055,0.0205,
0.467926,-0.0638,0.4073,0.8158,-0.1074,0.3065,-0.5305,0.0830,0.4055,0.0205,
0.469495,-0.0638,0.4073,0.8158,0.2054,0.0093,-0.2299,0.0830,0.4055,0.0205,
0.500938,-0.0479,0.3797,0.8479,0.2054,0.0093,-0.2299,0.0830,0.4055,0.0205,
0.508047,-0.0479,0.3797,0.8479,0.2054,0.0093,-0.2299,-0.1463,0.0730,-0.3060,
0.538401,-0.0479,0.3797,0.8479,0.0133,-0.1544,-0.4176,-0.1463,0.0730,-0.3060,
0.539649,-0.0355,0.3559,0.8540,0.0133,-0.1544,-0.4176,-0.1463,0.0730,-0.3060,
0.540379,-0.1174,0.4283,0.8014,0.0133,-0.1544,-0.4176,-0.1463,0.0730,-0.3060,
0.541037,-0.1174,0.4283,0.8014,0.1484,-0.0061,-0.3941,-0.1463,0.0730,-0.3060,
0.555150,-0.2787,0.6603,0.6992,0.1484,-0.0061,-0.3941,-0.1463,0.0730,-0.3060,
0.567894,-0.2787,0.6603,0.6992,0.1484,-0.0061,-0.3941,-0.3587,0.3450,-0.3616,
0.570920,-0.3686,0.5576,0.8713,0.1484,-0.0061,-0.3941,-0.3587,0.3450,-0.3616,
0.608941,-0.3686,0.5576,0.8713,-0.0668,0.3604,-0.6262,-0.3587,0.3450,-0.3616,
0.609842,-0.0822,0.3701,0.9815,-0.0668,0.3604,-0.6262,-0.3587,0.3450,-0.3616,
0.610595,-0.0198,0.3195,0.9187,-0.0668,0.3604,-0.6262,-0.3587,0.3450,-0.3616,
0.633851,-0.0418,0.2411,0.9911,-0.0668,0.3604,-0.6262,-0.3587,0.3450,-0.3616,
0.648739,-0.0418,0.2411,0.9911,-0.0668,0.3604,-0.6262,0.0201,-0.2612,0.3561,
0.654078,-0.0995,0.2525,0.9698,-0.0668,0.3604,-0.6262,0.0201,-0.2612,0.3561,
0.678466,-0.0995,0.2525,0.9698,-0.9609,0.3622,0.1892,0.0201,-0.2612,0.3561,
0.679475,-0.0079,0.3271,0.7589,-0.9609,0.3622,0.1892,0.0201,-0.2612,0.3561,
0.701284,-0.1046,0.3703,0.7241,-0.9609,0.3622,0.1892,0.0201,-0.2612,0.3561,
0.711393,-0.1046,0.3703,0.7241,-0.9609,0.3622,0.1892,0.4419,-1.0422,-0.0326,
0.749621,-0.1159,0.4403,0.7425,-0.9609,0.3622,0.1892,0.4419,-1.0422,-0.0326,
0.751496,-0.0866,0.4476,0.7153,-0.9609,0.3622,0.1892,0.4419,-1.0422,-0.0326,
0.752891,-0.0452,0.3716,0.7217,-0.9609,0.3622,0.1892,0.4419,-1.0422,-0.0326,
0.754258,-0.0452,0.3716,0.7217,-0.3582,-1.2986,0.0774,0.4419,-1.0422,-0.0326,
0.768397,-0.0452,0.3716,0.7217,-0.3582,-1.2986,0.0774,0.3924,-0.9550,0.4081,
0.820241,-0.0452,0.3716,0.7217,-1.1295,-0.1804,-1.1325,0.3924,-0.9550,0.4081,
0.821350,0.0220,0.3479,0.7760,-1.1295,-0.1804,-1.1325,0.3924,-0.9550,0.4081,
0.822244,0.0880,0.3679,0.8571,-1.1295,-0.1804,-1.1325,0.3924,-0.9550,0.4081,
0.823036,0.0562,0.3963,0.8527,-1.1295,-0.1804,-1.1325,0.3924,-0.9550,0.4081,
0.834512,0.0797,0.4217,0.8892,-1.1295,-0.1804,-1.1325,0.3924,-0.9550,0.4081,
0.849655,0.0797,0.4217,0.8892,-1.1295,-0.1804,-1.1325,0.3361,-0.5863,1.1009,
0.855488,0.1505,0.4437,0.8733,-1.1295,-0.1804,-1.1325,0.3361,-0.5863,1.1009,
0.889442,0.1505,0.4437,0.8733,-0.2625,-0.6224,0.0254,0.3361,-0.5863,1.1009,
0.891363,0.2207,0.4803,0.9248,-0.2625,-0.6224,0.0254,0.3361,-0.5863,1.1009,
0.892541,0.2940,0.5158,0.9754,-0.2625,-0.6224,0.0254,0.3361,-0.5863,1.1009,
0.911923,0.2940,0.5158,0.9754,-0.2625,-0.6224,0.0254,0.2897,-0.5628,1.4801,
0.957084,0.2965,0.5439,0.9410,-0.2625,-0.6224,0.0254,0.2897,-0.5628,1.4801,
0.958529,0.2989,0.5491,0.9280,-0.2625,-0.6224,0.0254,0.2897,-0.5628,1.4801,
0.959523,0.3495,0.5469,0.9449,-0.2625,-0.6224,0.0254,0.2897,-0.5628,1.4801,
0.960438,0.3495,0.5469,0.9449,0.4392,0.2296,0.8729,0.2897,-0.5628,1.4801,
0.961342,0.3495,0.5469,0.9449,-0.0827,0.2196,0.9040,0.2897,-0.5628,1.4801,
0.969659,0.3495,0.5469,0.9449,-0.0827,0.2196,0.9040,0.2965,-0.4453,1.2081,
1.030239,0.4253,0.5498,0.8938,-0.0827,0.2196,0.9040,0.2965,-0.4453,1.2081,
1.031870,0.4233,0.5852,0.8004,-0.0827,0.2196,0.9040,0.2965,-0.4453,1.2081,
1.032804,0.3373,0.5963,0.7423,-0.0827,0.2196,0.9040,0.2965,-0.4453,1.2081,
1.033744,0.3373,0.5963,0.7423,0.7529,0.8881,1.0490,0.2965,-0.4453,1.2081,
1.034793,0.3373,0.5963,0.7423,0.7529,0.8881,1.0490,-0.0083,0.0397,0.6791,
1.035751,0.3488,0.5889,0.8703,0.7529,0.8881,1.0490,-0.0083,0.0397,0.6791,
1.054725,0.3815,0.5801,0.9720,0.7529,0.8881,1.0490,-0.0083,0.0397,0.6791,
1.100490,0.3815,0.5801,0.9720,1.1350,1.3997,-0.2240,-0.0083,0.0397,0.6791,
1.102863,0.4018,0.5552,1.0610,1.1350,1.3997,-0.2240,-0.0083,0.0397,0.6791,
1.104277,0.3415,0.5348,0.9982,1.1350,1.3997,-0.2240,-0.0083,0.0397,0.6791,
1.110940,0.3415,0.5348,0.9982,1.1350,1.3997,-0.2240,-0.2510,0.0072,0.2960,
1.155563,0.3075,0.5121,0.9222,1.1350,1.3997,-0.2240,-0.2510,0.0072,0.2960,
1.158074,0.2654,0.4904,0.8784,1.1350,1.3997,-0.2240,-0.2510,0.0072,0.2960,
1.159287,0.2552,0.4689,0.8855,1.1350,1.3997,-0.2240,-0.2510,0.0072,0.2960,
1.171851,0.2552,0.4689,0.8855,1.1350,1.3997,-0.2240,-0.0201,-0.0502,0.1044,
1.173893,0.2552,0.4689,0.8855,0.9081,1.0402,1.4629,-0.0201,-0.0502,0.1044,
1.175260,0.3133,0.4567,0.9263,0.9081,1.0402,1.4629,-0.0201,-0.0502,0.1044,
1.232858,0.3133,0.4567,0.9263,0.9081,1.0402,1.4629,0.0782,-0.2807,0.0879,
1.233878,0.3119,0.4596,0.8349,0.9081,1.0402,1.4629,0.0782,-0.2807,0.0879,
1.234709,0.2870,0.4527,0.7779,0.9081,1.0402,1.4629,0.0782,-0.2807,0.0879,
1.235444,0.2894,0.4488,0.8574,0.9081,1.0402,1.4629,0.0782,-0.2807,0.0879,
1.241239,0.2894,0.4488,0.8574,-0.0698,0.2774,0.5096,0.0782,-0.2807,0.0879,
1.255985,0.2935,0.4388,0.8667,-0.0698,0.2774,0.5096,0.0782,-0.2807,0.0879,
1.302040,0.2994,0.4420,0.8339,-0.0698,0.2774,0.5096,0.0782,-0.2807,0.0879,
1.303336,0.3270,0.4452,0.8371,-0.0698,0.2774,0.5096,0.0782,-0.2807,0.0879,
1.313888,0.3270,0.4452,0.8371,-0.0698,0.2774,0.5096,0.0429,-0.2818,0.1419,
1.317721,0.3344,0.4469,0.8432,-0.0698,0.2774,0.5096,0.0429,-0.2818,0.1419,
1.321878,0.3344,0.4469,0.8432,-0.0723,0.0355,-0.1021,0.0429,-0.2818,0.1419,
1.354260,0.3121,0.4635,0.8347,-0.0723,0.0355,-0.1021,0.0429,-0.2818,0.1419,
1.355851,0.3067,0.4654,0.8613,-0.0723,0.0355,-0.1021,0.0429,-0.2818,0.1419,
1.372163,0.3067,0.4654,0.8613,-0.0723,0.0355,-0.1021,-0.0559,-0.0220,0.1188,
1.381303,0.3204,0.4689,0.8852,-0.0723,0.0355,-0.1021,-0.0559,-0.0220,0.1188,
1.382479,0.3204,0.4689,0.8852,-0.0340,-0.0359,0.0460,-0.0559,-0.0220,0.1188,
1.383602,0.3204,0.4689,0.8852,-0.0658,0.0182,0.0287,-0.0559,-0.0220,0.1188,
1.432212,0.3204,0.4689,0.8852,-0.0658,0.0182,0.0287,0.0112,-0.0936,0.1053,
1.433858,0.3559,0.4689,0.8879,-0.0658,0.0182,0.0287,0.0112,-0.0936,0.1053,
1.434752,0.3429,0.4664,0.8625,-0.0658,0.0182,0.0287,0.0112,-0.0936,0.1053,
1.435791,0.3302,0.4618,0.8589,-0.0658,0.0182,0.0287,0.0112,-0.0936,0.1053,
1.451686,0.3226,0.4549,0.8435,-0.0658,0.0182,0.0287,0.0112,-0.0936,0.1053,
1.452970,0.3226,0.4549,0.8435,-0.1020,0.2367,0.2712,0.0112,-0.0936,0.1053,
1.501353,0.3170,0.4449,0.8219,-0.1020,0.2367,0.2712,0.0112,-0.0936,0.1053,
1.502165,0.3185,0.4393,0.8163,-0.1020,0.2367,0.2712,0.0112,-0.0936,0.1053,
1.511058,0.3185,0.4393,0.8163,-0.1020,0.2367,0.2712,0.0071,0.0162,0.1016,
1.521564,0.3185,0.4393,0.8163,0.0465,0.2047,0.2022,0.0071,0.0162,0.1016,
1.522812,0.3104,0.4303,0.8034,0.0465,0.2047,0.2022,0.0071,0.0162,0.1016,
1.555802,0.2997,0.4146,0.8117,0.0465,0.2047,0.2022,0.0071,0.0162,0.1016,
1.556776,0.2867,0.4126,0.8161,0.0465,0.2047,0.2022,0.0071,0.0162,0.1016,
1.571748,0.2867,0.4126,0.8161,0.0465,0.2047,0.2022,0.0024,-0.0844,0.2000,
1.591787,0.2867,0.4126,0.8161,-0.2456,-0.0294,-0.2205,0.0024,-0.0844,0.2000,
1.592728,0.2787,0.4109,0.8082,-0.2456,-0.0294,-0.2205,0.0024,-0.0844,0.2000,
1.593248,0.2860,0.4092,0.8019,-0.2456,-0.0294,-0.2205,0.0024,-0.0844,0.2000,
1.633275,0.2867,0.4104,0.8251,-0.2456,-0.0294,-0.2205,0.0024,-0.0844,0.2000,
1.634291,0.2867,0.4104,0.8251,-0.2456,-0.0294,-0.2205,0.0001,-0.1446,0.4394,
1.635157,0.2745,0.4063,0.8469,-0.2456,-0.0294,-0.2205,0.0001,-0.1446,0.4394,
1.655648,0.2921,0.4139,0.8557,-0.2456,-0.0294,-0.2205,0.0001,-0.1446,0.4394,
1.662963,0.2921,0.4139,0.8557,-0.6523,-0.1793,-0.2148,0.0001,-0.1446,0.4394,
1.700623,0.2782,0.4270,0.8104,-0.6523,-0.1793,-0.2148,0.0001,-0.1446,0.4394,
1.701768,0.2407,0.4361,0.7897,-0.6523,-0.1793,-0.2148,0.0001,-0.1446,0.4394,
1.712026,0.2407,0.4361,0.7897,-0.6523,-0.1793,-0.2148,-0.0297,-0.0261,0.6784,
1.732578,0.2407,0.4361,0.7897,-0.7438,-0.0335,0.0833,-0.0297,-0.0261,0.6784,
1.733732,0.2368,0.4209,0.8231,-0.7438,-0.0335,0.0833,-0.0297,-0.0261,0.6784,
1.734559,0.2346,0.3955,0.8794,-0.7438,-0.0335,0.0833,-0.0297,-0.0261,0.6784,
1.754822,0.2014,0.3999,0.8955,-0.7438,-0.0335,0.0833,-0.0297,-0.0261,0.6784,
1.772679,0.2014,0.3999,0.8955,-0.7438,-0.0335,0.0833,-0.0836,-0.1921,1.0038,
1.779310,0.1154,0.4794,0.8869,-0.7438,-0.0335,0.0833,-0.0836,-0.1921,1.0038,
1.795544,0.0936,0.5063,0.9598,-0.7438,-0.0335,0.0833,-0.0836,-0.1921,1.0038,
1.802598,0.0628,0.5302,1.0825,-0.7438,-0.0335,0.0833,-0.0836,-0.1921,1.0038,
1.804741,0.0736,0.5425,1.1089,-0.7438,-0.0335,0.0833,-0.0836,-0.1921,1.0038,
1.808002,0.0819,0.5478,1.1338,-0.7438,-0.0335,0.0833,-0.0836,-0.1921,1.0038,
1.811588,0.0950,0.5410,1.1558,-0.7438,-0.0335,0.0833,-0.0836,-0.1921,1.0038,
1.812802,0.1063,0.5370,1.1627,-0.7438,-0.0335,0.0833,-0.0836,-0.1921,1.0038,
1.814761,0.1156,0.5390,1.1652,-0.7438,-0.0335,0.0833,-0.0836,-0.1921,1.0038,
1.817363,0.1278,0.5395,1.1720,-0.7438,-0.0335,0.0833,-0.0836,-0.1921,1.0038,
1.822317,0.1293,0.5356,1.1759,-0.7438,-0.0335,0.0833,-0.0836,-0.1921,1.0038,
1.823549,0.1342,0.5346,1.1735,-0.7438,-0.0335,0.0833,-0.0836,-0.1921,1.0038,
1.824762,0.1400,0.5444,1.1754,-0.7438,-0.0335,0.0833,-0.0836,-0.1921,1.0038,
1.827440,0.1483,0.5478,1.1779,-0.7438,-0.0335,0.0833,-0.0836,-0.1921,1.0038,
1.829719,0.1464,0.5586,1.1793,-0.7438,-0.0335,0.0833,-0.0836,-0.1921,1.0038,
1.832735,0.1356,0.5801,1.1837,-0.7438,-0.0335,0.0833,-0.0836,-0.1921,1.0038,
1.833730,0.1356,0.5801,1.1837,-0.7438,-0.0335,0.0833,0.1550,0.0032,1.6662,
1.835103,0.1283,0.6070,1.1842,-0.7438,-0.0335,0.0833,0.1550,0.0032,1.6662,
1.837592,0.1308,0.6212,1.1910,-0.7438,-0.0335,0.0833,0.1550,0.0032,1.6662,
1.840236,0.1459,0.6285,1.1984,-0.7438,-0.0335,0.0833,0.1550,0.0032,1.6662,
1.844990,0.1605,0.6304,1.2067,-0.7438,-0.0335,0.0833,0.1550,0.0032,1.6662,
1.845740,0.1816,0.6363,1.2214,-0.7438,-0.0335,0.0833,0.1550,0.0032,1.6662,
1.847581,0.1982,0.6397,1.2321,-0.7438,-0.0335,0.0833,0.1550,0.0032,1.6662,
1.850487,0.2143,0.6470,1.2434,-0.7438,-0.0335,0.0833,0.1550,0.0032,1.6662,
1.853902,0.2207,0.6622,1.2492,-0.7438,-0.0335,0.0833,0.1550,0.0032,1.6662,
1.854614,0.2237,0.6749,1.2531,-0.7438,-0.0335,0.0833,0.1550,0.0032,1.6662,
1.857206,0.2300,0.6876,1.2629,-0.7438,-0.0335,0.0833,0.1550,0.0032,1.6662,
1.859657,0.2520,0.6793,1.2800,-0.7438,-0.0335,0.0833,0.1550,0.0032,1.6662,
1.862427,0.2715,0.6740,1.2927,-0.7438,-0.0335,0.0833,0.1550,0.0032,1.6662,
1.865245,0.2960,0.6715,1.2986,-0.7438,-0.0335,0.0833,0.1550,0.0032,1.6662,
1.866393,0.2960,0.6715,1.2986,-1.3004,0.2430,-0.0340,0.1550,0.0032,1.6662,
1.867165,0.2960,0.6715,1.2986,-1.4083,0.4732,-0.0296,0.1550,0.0032,1.6662,
1.867893,0.2960,0.6715,1.2986,-1.6482,0.6831,0.0566,0.1550,0.0032,1.6662,
1.868571,0.3155,0.6744,1.3049,-1.6482,0.6831,0.0566,0.1550,0.0032,1.6662,
1.869870,0.3322,0.6852,1.3176,-1.6482,0.6831,0.0566,0.1550,0.0032,1.6662,
1.872548,0.3434,0.6910,1.3280,-1.6482,0.6831,0.0566,0.1550,0.0032,1.6662,
1.875676,0.3620,0.6998,1.3431,-1.6482,0.6831,0.0566,0.1550,0.0032,1.6662,
1.877350,0.3796,0.7043,1.3460,-1.6482,0.6831,0.0566,0.1550,0.0032,1.6662,
1.879959,0.3977,0.7067,1.3519,-1.6482,0.6831,0.0566,0.1550,0.0032,1.6662,
1.882455,0.4172,0.7077,1.3490,-1.6482,0.6831,0.0566,0.1550,0.0032,1.6662,
1.885701,0.4353,0.7126,1.3426,-1.6482,0.6831,0.0566,0.1550,0.0032,1.6662,
1.887979,0.4515,0.7160,1.3382,-1.6482,0.6831,0.0566,0.1550,0.0032,1.6662,
1.890152,0.4578,0.7219,1.3319,-1.6482,0.6831,0.0566,0.1550,0.0032,1.6662,
1.893052,0.4690,0.7312,1.3181,-1.6482,0.6831,0.0566,0.1550,0.0032,1.6662,
1.894937,0.4808,0.7468,1.3108,-1.6482,0.6831,0.0566,0.1550,0.0032,1.6662,
1.897608,0.4940,0.7581,1.2971,-1.6482,0.6831,0.0566,0.1550,0.0032,1.6662,
1.900004,0.5067,0.7688,1.2918,-1.6482,0.6831,0.0566,0.1550,0.0032,1.6662,
1.903672,0.5257,0.7771,1.2883,-1.6482,0.6831,0.0566,0.1550,0.0032,1.6662,
1.905256,0.5517,0.7844,1.2805,-1.6482,0.6831,0.0566,0.1550,0.0032,1.6662,
1.907363,0.5844,0.7913,1.2687,-1.6482,0.6831,0.0566,0.1550,0.0032,1.6662,
1.909909,0.6206,0.7864,1.2595,-1.6482,0.6831,0.0566,0.1550,0.0032,1.6662,
1.913012,0.6656,0.7879,1.2414,-1.6482,0.6831,0.0566,0.1550,0.0032,1.6662,
1.913710,0.6656,0.7879,1.2414,-1.6482,0.6831,0.0566,1.1895,0.0025,2.6610,
1.915165,0.7120,0.7844,1.2243,-1.6482,0.6831,0.0566,1.1895,0.0025,2.6610,
1.918348,0.7623,0.7791,1.1998,-1.6482,0.6831,0.0566,1.1895,0.0025,2.6610,
1.920380,0.8156,0.7752,1.1637,-1.6482,0.6831,0.0566,1.1895,0.0025,2.6610,
1.954677,1.0877,0.8869,0.9598,-1.6482,0.6831,0.0566,1.1895,0.0025,2.6610,
1.972997,1.0877,0.8869,0.9598,-1.6482,0.6831,0.0566,2.4490,-0.1109,2.7789,
2.004019,1.0107,0.8993,1.2221,-1.6482,0.6831,0.0566,2.4490,-0.1109,2.7789,
2.006363,1.0107,0.8993,1.2221,-2.9400,2.2712,3.7989,2.4490,-0.1109,2.7789,
2.007395,1.0107,0.8993,1.2221,-3.4089,1.7989,4.2068,2.4490,-0.1109,2.7789,
2.032890,1.0107,0.8993,1.2221,-3.4089,1.7989,4.2068,2.6896,0.1905,1.2241,
2.033685,0.9318,0.9292,1.2115,-3.4089,1.7989,4.2068,2.6896,0.1905,1.2241,
2.037553,1.0811,0.9287,1.2903,-3.4089,1.7989,4.2068,2.6896,0.1905,1.2241,
2.055839,1.2263,0.9560,1.3193,-3.4089,1.7989,4.2068,2.6896,0.1905,1.2241,
2.073449,1.2835,1.0005,1.2377,-3.4089,1.7989,4.2068,2.6896,0.1905,1.2241,
2.074786,1.2835,1.0005,1.2377,4.7511,3.6595,3.6060,2.6896,0.1905,1.2241,
2.113861,1.2835,1.0005,1.2377,4.7511,3.6595,3.6060,3.9241,-0.2225,0.6908,
2.115153,1.2874,1.0108,1.1539,4.7511,3.6595,3.6060,3.9241,-0.2225,0.6908,
2.123371,1.2730,0.9822,1.1984,4.7511,3.6595,3.6060,3.9241,-0.2225,0.6908,
2.143462,1.3436,0.9328,1.2495,4.7511,3.6595,3.6060,3.9241,-0.2225,0.6908,
2.144206,1.3436,0.9328,1.2495,5.4803,3.0132,6.7222,3.9241,-0.2225,0.6908,
2.174154,1.4707,0.9088,1.2324,5.4803,3.0132,6.7222,3.9241,-0.2225,0.6908,
2.174954,1.4707,0.9088,1.2324,5.4803,3.0132,6.7222,4.4648,-1.2485,0.0559,
2.190116,1.5866,0.8490,1.1526,5.4803,3.0132,6.7222,4.4648,-1.2485,0.0559,
2.214208,1.5866,0.8490,1.1526,6.4687,1.8346,8.0417,4.4648,-1.2485,0.0559,
2.215059,1.6524,0.7717,0.9859,6.4687,1.8346,8.0417,4.4648,-1.2485,0.0559,
2.215704,1.5524,0.6945,0.8899,6.4687,1.8346,8.0417,4.4648,-1.2485,0.0559,
2.234061,1.5524,0.6945,0.8899,6.4687,1.8346,8.0417,4.5394,-1.9281,-1.1238,
2.253603,1.4155,0.5948,0.8963,6.4687,1.8346,8.0417,4.5394,-1.9281,-1.1238,
2.255982,1.3794,0.4936,0.8381,6.4687,1.8346,8.0417,4.5394,-1.9281,-1.1238,
2.284307,1.2701,0.3936,0.7340,6.4687,1.8346,8.0417,4.5394,-1.9281,-1.1238,
2.284817,1.2701,0.3936,0.7340,8.8796,-0.8410,9.1287,4.5394,-1.9281,-1.1238,
2.285226,1.2701,0.3936,0.7340,9.5791,-1.3657,11.6955,4.5394,-1.9281,-1.1238,
2.314919,1.1254,0.2943,0.7408,9.5791,-1.3657,11.6955,4.5394,-1.9281,-1.1238,
2.315865,1.1254,0.2943,0.7408,9.5791,-1.3657,11.6955,3.6949,-2.5909,-1.9209,
2.324015,0.9718,0.1919,0.6931,9.5791,-1.3657,11.6955,3.6949,-2.5909,-1.9209,
2.354103,0.8672,0.0961,0.5041,9.5791,-1.3657,11.6955,3.6949,-2.5909,-1.9209,
2.354789,0.7521,0.0340,0.2841,9.5791,-1.3657,11.6955,3.6949,-2.5909,-1.9209,
2.355292,0.7521,0.0340,0.2841,8.3375,-4.3676,11.8006,3.6949,-2.5909,-1.9209,
2.374147,0.7521,0.0340,0.2841,8.3375,-4.3676,11.8006,3.5187,-2.9756,-1.5270,
2.389318,0.6617,0.0076,0.0886,8.3375,-4.3676,11.8006,3.5187,-2.9756,-1.5270,
2.425128,0.6617,0.0076,0.0886,5.4806,-6.5937,11.2884,3.5187,-2.9756,-1.5270,
2.426932,0.6282,-0.0078,0.0248,5.4806,-6.5937,11.2884,3.5187,-2.9756,-1.5270,
2.428329,0.5827,-0.0704,0.0554,5.4806,-6.5937,11.2884,3.5187,-2.9756,-1.5270,
2.434581,0.5827,-0.0704,0.0554,5.4806,-6.5937,11.2884,2.9546,-4.0388,-0.4245,
2.453632,0.4299,-0.1244,0.0016,5.4806,-6.5937,11.2884,2.9546,-4.0388,-0.4245,
2.455844,0.2635,-0.1632,-0.1554,5.4806,-6.5937,11.2884,2.9546,-4.0388,-0.4245,
2.494925,0.2635,-0.1632,-0.1554,4.2911,-6.9424,8.1038,2.9546,-4.0388,-0.4245,
2.496949,0.1711,-0.1967,-0.2333,4.2911,-6.9424,8.1038,2.9546,-4.0388,-0.4245,
2.498257,0.0587,-0.1933,-0.1886,4.2911,-6.9424,8.1038,2.9546,-4.0388,-0.4245,
2.515021,0.0587,-0.1933,-0.1886,4.2911,-6.9424,8.1038,2.2026,-4.2991,0.6262,
2.523031,0.0063,-0.2099,-0.1829,4.2911,-6.9424,8.1038,2.2026,-4.2991,0.6262,
2.554049,-0.0176,-0.2033,-0.2245,4.2911,-6.9424,8.1038,2.2026,-4.2991,0.6262,
2.566052,-0.0228,-0.1486,-0.2878,4.2911,-6.9424,8.1038,2.2026,-4.2991,0.6262,
2.567165,-0.0228,-0.1486,-0.2878,2.0157,-7.0938,6.6263,2.2026,-4.2991,0.6262,
2.577191,-0.0228,-0.1486,-0.2878,2.0157,-7.0938,6.6263,1.6771,-4.4407,1.9078,
2.590137,-0.0281,-0.1249,-0.2851,2.0157,-7.0938,6.6263,1.6771,-4.4407,1.9078,
2.619227,-0.1051,-0.1168,-0.2426,2.0157,-7.0938,6.6263,1.6771,-4.4407,1.9078,
2.620324,-0.1990,-0.0635,-0.1930,2.0157,-7.0938,6.6263,1.6771,-4.4407,1.9078,
2.635932,-0.1990,-0.0635,-0.1930,2.0157,-7.0938,6.6263,0.7306,-3.5055,2.4649,
2.637059,-0.2345,-0.0552,-0.1666,2.0157,-7.0938,6.6263,0.7306,-3.5055,2.4649,
2.638838,-0.2345,-0.0552,-0.1666,1.5228,-6.2513,5.9803,0.7306,-3.5055,2.4649,
2.669054,-0.1819,-0.0474,-0.1927,1.5228,-6.2513,5.9803,0.7306,-3.5055,2.4649,
2.693214,-0.1044,0.0497,-0.2993,1.5228,-6.2513,5.9803,0.7306,-3.5055,2.4649,
2.706029,-0.1044,0.0497,-0.2993,1.0431,-5.2136,5.8224,0.7306,-3.5055,2.4649,
2.708396,-0.0416,0.1025,-0.3545,1.0431,-5.2136,5.8224,0.7306,-3.5055,2.4649,
2.709170,-0.0416,0.1025,-0.3545,1.6630,-5.4171,5.1970,0.7306,-3.5055,2.4649,
2.715659,-0.0416,0.1025,-0.3545,1.6630,-5.4171,5.1970,0.4363,-3.2994,3.1363,
2.728558,0.0049,0.0619,-0.3127,1.6630,-5.4171,5.1970,0.4363,-3.2994,3.1363,
2.753506,-0.2374,0.1184,-0.2671,1.6630,-5.4171,5.1970,0.4363,-3.2994,3.1363,
2.759835,-0.3271,0.1418,-0.2423,1.6630,-5.4171,5.1970,0.4363,-3.2994,3.1363,
2.776674,-0.3271,0.1418,-0.2423,1.6630,-5.4171,5.1970,-0.7001,-2.5913,3.0896,
2.777726,-0.1083,0.0997,-0.1759,1.6630,-5.4171,5.1970,-0.7001,-2.5913,3.0896,
2.778413,-0.1083,0.0997,-0.1759,2.4132,-4.9313,3.5961,-0.7001,-2.5913,3.0896,
2.826540,0.0435,0.1022,-0.1411,2.4132,-4.9313,3.5961,-0.7001,-2.5913,3.0896,
2.827717,0.1351,0.1306,-0.0432,2.4132,-4.9313,3.5961,-0.7001,-2.5913,3.0896,
2.836277,0.1351,0.1306,-0.0432,2.4132,-4.9313,3.5961,-1.7463,-2.6464,3.6846,
2.846167,0.0853,0.2203,0.2338,2.4132,-4.9313,3.5961,-1.7463,-2.6464,3.6846,
2.848289,0.0853,0.2203,0.2338,1.0682,-5.3171,2.9990,-1.7463,-2.6464,3.6846,
2.865889,0.0046,0.2853,0.4399,1.0682,-5.3171,2.9990,-1.7463,-2.6464,3.6846,
2.894404,0.1334,0.3068,0.4885,1.0682,-5.3171,2.9990,-1.7463,-2.6464,3.6846,
2.896950,0.1334,0.3068,0.4885,1.0682,-5.3171,2.9990,-2.5769,-2.1536,3.4902,
2.909889,0.2158,0.3664,0.4651,1.0682,-5.3171,2.9990,-2.5769,-2.1536,3.4902,
2.916508,0.2158,0.3664,0.4651,2.7344,-5.8453,4.4533,-2.5769,-2.1536,3.4902,
2.949628,0.0657,0.3855,0.4543,2.7344,-5.8453,4.4533,-2.5769,-2.1536,3.4902,
2.951542,-0.0223,0.3537,0.6657,2.7344,-5.8453,4.4533,-2.5769,-2.1536,3.4902,
2.959730,0.2063,0.4403,1.1062,2.7344,-5.8453,4.4533,-2.5769,-2.1536,3.4902,
2.976759,0.2063,0.4403,1.1062,2.7344,-5.8453,4.4533,-3.4215,-1.4479,3.4190,
2.989112,0.3204,0.6461,1.2224,2.7344,-5.8453,4.4533,-3.4215,-1.4479,3.4190,
2.990610,0.3204,0.6461,1.2224,1.8508,-4.8104,6.5918,-3.4215,-1.4479,3.4190,
3.026989,0.2970,0.7280,1.1229,1.8508,-4.8104,6.5918,-3.4215,-1.4479,3.4190,
3.028092,0.5358,0.7297,1.4105,1.8508,-4.8104,6.5918,-3.4215,-1.4479,3.4190,
3.037024,0.5358,0.7297,1.4105,1.8508,-4.8104,6.5918,-3.1209,-1.0892,3.8785,
3.038449,0.5362,0.8658,1.7173,1.8508,-4.8104,6.5918,-3.1209,-1.0892,3.8785,
3.058084,0.5079,0.9590,1.8364,1.8508,-4.8104,6.5918,-3.1209,-1.0892,3.8785,
3.059704,0.5079,0.9590,1.8364,0.6144,-3.2264,10.0057,-3.1209,-1.0892,3.8785,
3.093056,0.6934,1.0944,1.8601,0.6144,-3.2264,10.0057,-3.1209,-1.0892,3.8785,
3.099427,0.6934,1.0944,1.8601,0.6144,-3.2264,10.0057,-2.0819,0.1992,4.1234,
3.110299,1.0117,1.0799,1.7129,0.6144,-3.2264,10.0057,-2.0819,0.1992,4.1234,
3.127120,1.0117,1.0799,1.7129,1.8004,0.4839,13.7824,-2.0819,0.1992,4.1234,
3.128249,1.0117,1.0799,1.7129,0.1271,1.6125,12.6551,-2.0819,0.1992,4.1234,
3.128881,0.9562,1.0986,1.5609,0.1271,1.6125,12.6551,-2.0819,0.1992,4.1234,
3.153506,0.8357,1.1393,1.6914,0.1271,1.6125,12.6551,-2.0819,0.1992,4.1234,
3.159643,0.9797,1.0704,1.9204,0.1271,1.6125,12.6551,-2.0819,0.1992,4.1234,
3.177741,0.9797,1.0704,1.9204,0.1271,1.6125,12.6551,-1.3421,2.2554,3.7024,
3.198507,1.1598,1.0419,1.6640,0.1271,1.6125,12.6551,-1.3421,2.2554,3.7024,
3.199624,1.1598,1.0419,1.6640,3.0153,5.4765,12.2804,-1.3421,2.2554,3.7024,
3.227396,1.3573,0.9930,1.2573,3.0153,5.4765,12.2804,-1.3421,2.2554,3.7024,
3.228822,1.3830,1.0130,1.0713,3.0153,5.4765,12.2804,-1.3421,2.2554,3.7024,
3.239219,1.3830,1.0130,1.0713,3.0153,5.4765,12.2804,0.2318,2.4719,3.5129,
3.249324,1.5233,0.9341,1.0596,3.0153,5.4765,12.2804,0.2318,2.4719,3.5129,
3.267667,1.3624,0.8595,0.9063,3.0153,5.4765,12.2804,0.2318,2.4719,3.5129,
3.269099,1.3624,0.8595,0.9063,5.0099,5.9006,10.6222,0.2318,2.4719,3.5129,
3.293130,1.3901,0.7070,1.0676,5.0099,5.9006,10.6222,0.2318,2.4719,3.5129,
3.298731,1.3901,0.7070,1.0676,5.0099,5.9006,10.6222,0.4606,2.9290,2.7760,
3.310835,1.5074,0.5842,1.1018,5.0099,5.9006,10.6222,0.4606,2.9290,2.7760,
3.339030,1.5226,0.5068,0.7291,5.0099,5.9006,10.6222,0.4606,2.9290,2.7760,
3.340451,1.4179,0.4405,0.5775,5.0099,5.9006,10.6222,0.4606,2.9290,2.7760,
3.341237,1.4179,0.4405,0.5775,8.0922,5.1897,3.5103,0.4606,2.9290,2.7760,
3.360376,1.1009,0.4114,0.7359,8.0922,5.1897,3.5103,0.4606,2.9290,2.7760,
3.378853,1.1009,0.4114,0.7359,8.0922,5.1897,3.5103,1.2514,2.5377,2.1227,
3.408290,1.1009,0.4114,0.7359,9.0390,1.6746,1.3428,1.2514,2.5377,2.1227,
3.410485,1.0503,0.3720,0.8847,9.0390,1.6746,1.3428,1.2514,2.5377,2.1227,
3.411286,1.0760,0.3821,0.7809,9.0390,1.6746,1.3428,1.2514,2.5377,2.1227,
3.426612,1.0691,0.3770,0.6367,9.0390,1.6746,1.3428,1.2514,2.5377,2.1227,
3.438249,1.0691,0.3770,0.6367,9.0390,1.6746,1.3428,1.3596,2.1390,1.8680,
3.448811,0.9195,0.3239,0.6457,9.0390,1.6746,1.3428,1.3596,2.1390,1.8680,
3.478968,0.9195,0.3239,0.6457,5.5796,0.2587,0.2629,1.3596,2.1390,1.8680,
3.480753,0.7545,0.2445,0.8398,5.5796,0.2587,0.2629,1.3596,2.1390,1.8680,
3.481435,0.7081,0.1780,0.9141,5.5796,0.2587,0.2629,1.3596,2.1390,1.8680,
3.498800,0.7081,0.1780,0.9141,5.5796,0.2587,0.2629,1.1895,1.7807,1.7961,
3.512439,0.8335,0.1604,0.8029,5.5796,0.2587,0.2629,1.1895,1.7807,1.7961,
3.548622,0.8335,0.1604,0.8029,3.6410,-0.9449,-0.1592,1.1895,1.7807,1.7961,
3.550642,0.8976,0.2071,0.6782,3.6410,-0.9449,-0.1592,1.1895,1.7807,1.7961,
3.551245,0.8291,0.2743,0.6041,3.6410,-0.9449,-0.1592,1.1895,1.7807,1.7961,
3.551941,0.8291,0.2743,0.6041,3.5683,-1.2043,-0.0237,1.1895,1.7807,1.7961,
3.559717,0.7712,0.3254,0.5452,3.5683,-1.2043,-0.0237,1.1895,1.7807,1.7961,
3.578932,0.7712,0.3254,0.5452,3.5683,-1.2043,-0.0237,1.6662,0.7817,1.6691,
3.619060,0.7712,0.3254,0.5452,3.6514,-1.7394,-0.8983,1.6662,0.7817,1.6691,
3.620933,0.7946,0.3401,0.5362,3.6514,-1.7394,-0.8983,1.6662,0.7817,1.6691,
3.621670,0.8056,0.3620,0.5093,3.6514,-1.7394,-0.8983,1.6662,0.7817,1.6691,
3.622484,0.7927,0.4012,0.5411,3.6514,-1.7394,-0.8983,1.6662,0.7817,1.6691,
3.638970,0.7927,0.4012,0.5411,3.6514,-1.7394,-0.8983,0.7381,0.6033,0.8457,
3.648859,0.6863,0.3863,0.6149,3.6514,-1.7394,-0.8983,0.7381,0.6033,0.8457,
3.688886,0.6863,0.3863,0.6149,3.2018,-0.4344,-2.2819,0.7381,0.6033,0.8457,
3.690964,0.6871,0.3943,0.6674,3.2018,-0.4344,-2.2819,0.7381,0.6033,0.8457,
3.691828,0.6440,0.3938,0.6914,3.2018,-0.4344,-2.2819,0.7381,0.6033,0.8457,
3.698815,0.6440,0.3938,0.6914,3.2018,-0.4344,-2.2819,0.1854,0.1723,0.1907,
3.710723,0.5839,0.4058,0.7141,3.2018,-0.4344,-2.2819,0.1854,0.1723,0.1907,
3.754095,0.5746,0.4141,0.7579,3.2018,-0.4344,-2.2819,0.1854,0.1723,0.1907,
3.755040,0.5199,0.4231,0.7701,3.2018,-0.4344,-2.2819,0.1854,0.1723,0.1907,
3.759397,0.5199,0.4231,0.7701,1.8236,-0.1807,-0.9230,0.1854,0.1723,0.1907,
3.760224,0.5250,0.4510,0.7875,1.8236,-0.1807,-0.9230,0.1854,0.1723,0.1907,
3.779510,0.5250,0.4510,0.7875,1.8236,-0.1807,-0.9230,0.1403,-0.1450,0.0667,
3.792670,0.4808,0.4706,0.7281,1.8236,-0.1807,-0.9230,0.1403,-0.1450,0.0667,
3.799402,0.4695,0.4740,0.7750,1.8236,-0.1807,-0.9230,0.1403,-0.1450,0.0667,
3.801518,0.4744,0.4720,0.7887,1.8236,-0.1807,-0.9230,0.1403,-0.1450,0.0667,
3.803993,0.4764,0.4764,0.7921,1.8236,-0.1807,-0.9230,0.1403,-0.1450,0.0667,
3.807090,0.4729,0.4759,0.8034,1.8236,-0.1807,-0.9230,0.1403,-0.1450,0.0667,
3.808908,0.4783,0.4764,0.8058,1.8236,-0.1807,-0.9230,0.1403,-0.1450,0.0667,
3.811720,0.4729,0.4769,0.8073,1.8236,-0.1807,-0.9230,0.1403,-0.1450,0.0667,
3.814587,0.4705,0.4784,0.8034,1.8236,-0.1807,-0.9230,0.1403,-0.1450,0.0667,
3.816645,0.4651,0.4838,0.8019,1.8236,-0.1807,-0.9230,0.1403,-0.1450,0.0667,
3.820601,0.4637,0.4803,0.8014,1.8236,-0.1807,-0.9230,0.1403,-0.1450,0.0667,
3.822255,0.4573,0.4794,0.7960,1.8236,-0.1807,-0.9230,0.1403,-0.1450,0.0667,
3.824162,0.4515,0.4784,0.7863,1.8236,-0.1807,-0.9230,0.1403,-0.1450,0.0667,
3.826819,0.4480,0.4794,0.7799,1.8236,-0.1807,-0.9230,0.1403,-0.1450,0.0667,
3.829120,0.4436,0.4784,0.7755,1.8236,-0.1807,-0.9230,0.1403,-0.1450,0.0667,
3.832098,0.4397,0.4784,0.7652,1.8236,-0.1807,-0.9230,0.1403,-0.1450,0.0667,
3.834417,0.4363,0.4774,0.7584,1.8236,-0.1807,-0.9230,0.1403,-0.1450,0.0667,
3.837036,0.4363,0.4774,0.7554,1.8236,-0.1807,-0.9230,0.1403,-0.1450,0.0667,
3.839831,0.4363,0.4774,0.7554,1.8236,-0.1807,-0.9230,0.0465,-0.1493,-0.0438,
3.840850,0.4353,0.4755,0.7525,1.8236,-0.1807,-0.9230,0.0465,-0.1493,-0.0438,
3.841636,0.4324,0.4774,0.7471,1.8236,-0.1807,-0.9230,0.0465,-0.1493,-0.0438,
3.844200,0.4294,0.4745,0.7476,1.8236,-0.1807,-0.9230,0.0465,-0.1493,-0.0438,
3.846750,0.4284,0.4696,0.7496,1.8236,-0.1807,-0.9230,0.0465,-0.1493,-0.0438,
3.849116,0.4348,0.4725,0.7550,1.8236,-0.1807,-0.9230,0.0465,-0.1493,-0.0438,
3.852066,0.4388,0.4725,0.7511,1.8236,-0.1807,-0.9230,0.0465,-0.1493,-0.0438,
3.854649,0.4436,0.4657,0.7550,1.8236,-0.1807,-0.9230,0.0465,-0.1493,-0.0438,
3.856822,0.4471,0.4676,0.7637,1.8236,-0.1807,-0.9230,0.0465,-0.1493,-0.0438,
3.859556,0.4495,0.4667,0.7642,1.8236,-0.1807,-0.9230,0.0465,-0.1493,-0.0438,
3.861900,0.4529,0.4652,0.7696,1.8236,-0.1807,-0.9230,0.0465,-0.1493,-0.0438,
3.862850,0.4529,0.4652,0.7696,0.5945,0.0876,0.1653,0.0465,-0.1493,-0.0438,
3.863468,0.4529,0.4652,0.7696,0.5561,0.0657,0.1908,0.0465,-0.1493,-0.0438,
3.865975,0.4524,0.4637,0.7760,0.5561,0.0657,0.1908,0.0465,-0.1493,-0.0438,
3.866791,0.4534,0.4662,0.7774,0.5561,0.0657,0.1908,0.0465,-0.1493,-0.0438,
3.870499,0.4544,0.4632,0.7824,0.5561,0.0657,0.1908,0.0465,-0.1493,-0.0438,
3.871811,0.4554,0.4628,0.7789,0.5561,0.0657,0.1908,0.0465,-0.1493,-0.0438,
3.875219,0.4495,0.4588,0.7809,0.5561,0.0657,0.1908,0.0465,-0.1493,-0.0438,
3.877737,0.4534,0.4584,0.7809,0.5561,0.0657,0.1908,0.0465,-0.1493,-0.0438,
3.879619,0.4485,0.4569,0.7784,0.5561,0.0657,0.1908,0.0465,-0.1493,-0.0438,
3.883425,0.4446,0.4554,0.7774,0.5561,0.0657,0.1908,0.0465,-0.1493,-0.0438,
3.884716,0.4422,0.4564,0.7725,0.5561,0.0657,0.1908,0.0465,-0.1493,-0.0438,
3.887997,0.4436,0.4564,0.7647,0.5561,0.0657,0.1908,0.0465,-0.1493,-0.0438,
3.889093,0.4436,0.4530,0.7637,0.5561,0.0657,0.1908,0.0465,-0.1493,-0.0438,
3.892418,0.4407,0.4510,0.7598,0.5561,0.0657,0.1908,0.0465,-0.1493,-0.0438,
3.894700,0.4407,0.4505,0.7525,0.5561,0.0657,0.1908,0.0465,-0.1493,-0.0438,
3.898654,0.4353,0.4471,0.7418,0.5561,0.0657,0.1908,0.0465,-0.1493,-0.0438,
3.900117,0.4353,0.4491,0.7393,0.5561,0.0657,0.1908,0.0465,-0.1493,-0.0438,
3.901001,0.4353,0.4491,0.7393,0.5561,0.0657,0.1908,0.0557,-0.1043,-0.0702,
3.903029,0.4324,0.4491,0.7408,0.5561,0.0657,0.1908,0.0557,-0.1043,-0.0702,
3.905135,0.4255,0.4447,0.7403,0.5561,0.0657,0.1908,0.0557,-0.1043,-0.0702,
3.970205,0.3940,0.4349,0.7659,0.5561,0.0657,0.1908,0.0557,-0.1043,-0.0702,
3.980223,0.3940,0.4349,0.7659,0.5561,0.0657,0.1908,-0.0016,-0.0148,-0.0715,
4.010227,0.3940,0.4349,0.7659,-0.3790,0.4830,0.3072,-0.0016,-0.0148,-0.0715,
4.011672,0.3857,0.4374,0.7703,-0.3790,0.4830,0.3072,-0.0016,-0.0148,-0.0715,
4.012326,0.4226,0.4483,0.7745,-0.3790,0.4830,0.3072,-0.0016,-0.0148,-0.0715,
4.013109,0.4226,0.4483,0.7745,-0.3566,0.4548,0.3021,-0.0016,-0.0148,-0.0715,
4.037661,0.4583,0.4737,0.7442,-0.3566,0.4548,0.3021,-0.0016,-0.0148,-0.0715,
4.040240,0.4583,0.4737,0.7442,-0.3566,0.4548,0.3021,0.1357,-0.1610,0.1194,
4.042357,0.5087,0.4828,0.7384,-0.3566,0.4548,0.3021,0.1357,-0.1610,0.1194,
4.081042,0.5087,0.4828,0.7384,-0.8809,0.1327,0.3174,0.1357,-0.1610,0.1194,
4.083093,0.5167,0.4907,0.7257,-0.8809,0.1327,0.3174,0.1357,-0.1610,0.1194,
4.084317,0.4844,0.4848,0.7469,-0.8809,0.1327,0.3174,0.1357,-0.1610,0.1194,
4.100543,0.4844,0.4848,0.7469,-0.8809,0.1327,0.3174,-0.0276,0.0077,-0.0349,
4.106643,0.4522,0.4745,0.8139,-0.8809,0.1327,0.3174,-0.0276,0.0077,-0.0349,
4.151046,0.4522,0.4745,0.8139,-0.0235,0.5025,0.0473,-0.0276,0.0077,-0.0349,
4.152552,0.4502,0.4755,0.8491,-0.0235,0.5025,0.0473,-0.0276,0.0077,-0.0349,
4.153378,0.4581,0.4762,0.8024,-0.0235,0.5025,0.0473,-0.0276,0.0077,-0.0349,
4.154303,0.4581,0.4762,0.8024,0.0282,0.5001,0.0075,-0.0276,0.0077,-0.0349,
4.169412,0.4837,0.4784,0.7640,0.0282,0.5001,0.0075,-0.0276,0.0077,-0.0349,
4.180828,0.4837,0.4784,0.7640,0.0282,0.5001,0.0075,0.0362,0.0221,-0.0210,
4.221291,0.4837,0.4784,0.7640,-0.3688,0.3671,0.7754,0.0362,0.0221,-0.0210,
4.223053,0.4888,0.4818,0.7640,-0.3688,0.3671,0.7754,0.0362,0.0221,-0.0210,
4.223578,0.4933,0.4833,0.7503,-0.3688,0.3671,0.7754,0.0362,0.0221,-0.0210,
4.241378,0.4933,0.4833,0.7503,-0.3688,0.3671,0.7754,0.0586,0.0381,-0.0108,
4.242978,0.4832,0.4764,0.7259,-0.3688,0.3671,0.7754,0.0586,0.0381,-0.0108,
4.243516,0.4671,0.4747,0.7347,-0.3688,0.3671,0.7754,0.0586,0.0381,-0.0108,
4.291442,0.4671,0.4747,0.7347,-0.0322,0.3890,0.1145,0.0586,0.0381,-0.0108,
4.293261,0.4722,0.4745,0.7491,-0.0322,0.3890,0.1145,0.0586,0.0381,-0.0108,
4.293911,0.4646,0.4720,0.7513,-0.0322,0.3890,0.1145,0.0586,0.0381,-0.0108,
4.301625,0.4646,0.4720,0.7513,-0.0322,0.3890,0.1145,-0.0104,0.0334,-0.0208,
4.306749,0.4666,0.4752,0.7601,-0.0322,0.3890,0.1145,-0.0104,0.0334,-0.0208,
4.354200,0.4712,0.4679,0.7496,-0.0322,0.3890,0.1145,-0.0104,0.0334,-0.0208,
4.355741,0.4742,0.4664,0.7542,-0.0322,0.3890,0.1145,-0.0104,0.0334,-0.0208,
4.362179,0.4742,0.4664,0.7542,-0.2374,0.3242,0.1032,-0.0104,0.0334,-0.0208,
4.366385,0.4808,0.4615,0.7696,-0.2374,0.3242,0.1032,-0.0104,0.0334,-0.0208,
4.381736,0.4808,0.4615,0.7696,-0.2374,0.3242,0.1032,0.0157,-0.0192,0.0569,
4.431672,0.4808,0.4615,0.7696,-0.1785,0.2635,0.2056,0.0157,-0.0192,0.0569,
4.433348,0.5033,0.4603,0.7890,-0.1785,0.2635,0.2056,0.0157,-0.0192,0.0569,
4.434298,0.4921,0.4715,0.7921,-0.1785,0.2635,0.2056,0.0157,-0.0192,0.0569,
4.434994,0.4722,0.4796,0.7637,-0.1785,0.2635,0.2056,0.0157,-0.0192,0.0569,
4.443368,0.4722,0.4796,0.7637,-0.1785,0.2635,0.2056,0.0241,0.1626,0.0964,
4.448754,0.4600,0.4776,0.7652,-0.1785,0.2635,0.2056,0.0241,0.1626,0.0964,
4.502392,0.4600,0.4776,0.7652,-0.1785,0.2635,0.2056,0.0856,0.0302,0.0984,
4.504019,0.4529,0.4713,0.7718,-0.1785,0.2635,0.2056,0.0856,0.0302,0.0984,
4.504571,0.4715,0.4684,0.7735,-0.1785,0.2635,0.2056,0.0856,0.0302,0.0984,
4.505153,0.4903,0.4818,0.7467,-0.1785,0.2635,0.2056,0.0856,0.0302,0.0984,
4.505664,0.4903,0.4818,0.7467,-0.0106,0.2887,0.3247,0.0856,0.0302,0.0984,
4.553836,0.5040,0.4919,0.7246,-0.0106,0.2887,0.3247,0.0856,0.0302,0.0984,
4.555357,0.4817,0.4902,0.7296,-0.0106,0.2887,0.3247,0.0856,0.0302,0.0984,
4.572245,0.4771,0.4850,0.7846,-0.0106,0.2887,0.3247,0.0856,0.0302,0.0984,
4.573722,0.4771,0.4850,0.7846,-0.1710,0.2687,0.1804,0.0856,0.0302,0.0984,
4.574473,0.4771,0.4850,0.7846,-0.1669,0.2211,0.1808,0.0856,0.0302,0.0984,
4.582505,0.4771,0.4850,0.7846,-0.1669,0.2211,0.1808,0.0687,-0.0188,0.0362,
4.625481,0.4605,0.4840,0.7946,-0.1669,0.2211,0.1808,0.0687,-0.0188,0.0362,
4.627142,0.4921,0.4833,0.7542,-0.1669,0.2211,0.1808,0.0687,-0.0188,0.0362,
4.627569,0.5067,0.4919,0.7129,-0.1669,0.2211,0.1808,0.0687,-0.0188,0.0362,
4.642487,0.5067,0.4919,0.7129,-0.1669,0.2211,0.1808,0.1180,-0.0497,0.0140,
4.644095,0.5067,0.4919,0.7129,-0.0434,0.2739,0.1186,0.1180,-0.0497,0.0140,
4.644703,0.4795,0.4848,0.7349,-0.0434,0.2739,0.1186,0.1180,-0.0497,0.0140,
4.692666,0.4683,0.4684,0.7689,-0.0434,0.2739,0.1186,0.1180,-0.0497,0.0140,
4.694266,0.4539,0.4652,0.7530,-0.0434,0.2739,0.1186,0.1180,-0.0497,0.0140,
4.703074,0.4539,0.4652,0.7530,-0.0434,0.2739,0.1186,0.0535,-0.0172,-0.0213,
4.713197,0.4483,0.4671,0.7445,-0.0434,0.2739,0.1186,0.0535,-0.0172,-0.0213,
4.714833,0.4483,0.4671,0.7445,-0.0095,0.2023,0.0049,0.0535,-0.0172,-0.0213,
4.753915,0.4695,0.4718,0.7252,-0.0095,0.2023,0.0049,0.0535,-0.0172,-0.0213,
4.755209,0.4972,0.4853,0.7266,-0.0095,0.2023,0.0049,0.0535,-0.0172,-0.0213,
4.763161,0.4972,0.4853,0.7266,-0.0095,0.2023,0.0049,0.0819,-0.0889,0.0735,
4.783242,0.4972,0.4853,0.7266,-0.3172,-0.0111,0.1434,0.0819,-0.0889,0.0735,
4.784565,0.5104,0.4880,0.7330,-0.3172,-0.0111,0.1434,0.0819,-0.0889,0.0735,
4.785191,0.4881,0.4865,0.7401,-0.3172,-0.0111,0.1434,0.0819,-0.0889,0.0735,
4.826059,0.4771,0.4803,0.7572,-0.3172,-0.0111,0.1434,0.0819,-0.0889,0.0735,
4.826836,0.4803,0.4870,0.7550,-0.3172,-0.0111,0.1434,0.0819,-0.0889,0.0735,
4.843123,0.4803,0.4870,0.7550,-0.3172,-0.0111,0.1434,-0.0055,-0.0157,-0.0036,
4.854454,0.4715,0.4823,0.7476,-0.3172,-0.0111,0.1434,-0.0055,-0.0157,-0.0036,
4.855472,0.4715,0.4823,0.7476,0.0335,0.1509,-0.0461,-0.0055,-0.0157,-0.0036,
4.864493,0.4827,0.4811,0.7677,0.0335,0.1509,-0.0461,-0.0055,-0.0157,-0.0036,
4.892995,0.4747,0.4880,0.7318,0.0335,0.1509,-0.0461,-0.0055,-0.0157,-0.0036,
4.903118,0.4747,0.4880,0.7318,0.0335,0.1509,-0.0461,0.0240,-0.0015,0.0364,
4.923747,0.4747,0.4880,0.7318,-0.1416,0.1128,0.1820,0.0240,-0.0015,0.0364,
4.925273,0.4754,0.4863,0.7288,-0.1416,0.1128,0.1820,0.0240,-0.0015,0.0364,
4.926141,0.4923,0.4840,0.7672,-0.1416,0.1128,0.1820,0.0240,-0.0015,0.0364,
4.953557,0.4813,0.4882,0.7437,-0.1416,0.1128,0.1820,0.0240,-0.0015,0.0364,
4.964378,0.4813,0.4882,0.7437,-0.1416,0.1128,0.1820,0.0023,-0.0154,0.0276,
4.993616,0.4813,0.4882,0.7437,-0.1012,0.1296,0.0771,0.0023,-0.0154,0.0276,
4.994886,0.4935,0.4919,0.7410,-0.1012,0.1296,0.0771,0.0023,-0.0154,0.0276,
4.995456,0.4896,0.4872,0.7584,-0.1012,0.1296,0.0771,0.0023,-0.0154,0.0276,
4.995914,0.4896,0.4872,0.7584,-0.0977,0.1157,0.0734,0.0023,-0.0154,0.0276,
5.025338,0.4668,0.4863,0.7618,-0.0977,0.1157,0.0734,0.0023,-0.0154,0.0276,
5.026618,0.4734,0.4865,0.7564,-0.0977,0.1157,0.0734,0.0023,-0.0154,0.0276,
5.043746,0.4734,0.4865,0.7564,-0.0977,0.1157,0.0734,-0.0025,0.0332,0.0021,
5.054082,0.4749,0.4853,0.7359,-0.0977,0.1157,0.0734,-0.0025,0.0332,0.0021,
5.065069,0.4866,0.4803,0.7291,-0.0977,0.1157,0.0734,-0.0025,0.0332,0.0021,
5.066196,0.4866,0.4803,0.7291,-0.0372,0.1294,0.0929,-0.0025,0.0332,0.0021,
5.092022,0.4982,0.4820,0.7391,-0.0372,0.1294,0.0929,-0.0025,0.0332,0.0021,
5.104235,0.4982,0.4820,0.7391,-0.0372,0.1294,0.0929,0.0324,-0.0012,0.0457,
5.134772,0.4737,0.4776,0.7423,-0.0372,0.1294,0.0929,0.0324,-0.0012,0.0457,
5.136090,0.4539,0.4715,0.7440,-0.0372,0.1294,0.0929,0.0324,-0.0012,0.0457,
5.136771,0.4539,0.4715,0.7440,-0.1240,0.0812,0.0337,0.0324,-0.0012,0.0457,
5.153829,0.4783,0.4728,0.7440,-0.1240,0.0812,0.0337,0.0324,-0.0012,0.0457,
5.165080,0.4783,0.4728,0.7440,-0.1240,0.0812,0.0337,0.0273,0.0081,0.0792,
5.204485,0.4783,0.4728,0.7440,-0.1473,0.0088,0.0237,0.0273,0.0081,0.0792,
5.206024,0.4891,0.4789,0.7217,-0.1473,0.0088,0.0237,0.0273,0.0081,0.0792,
5.206602,0.4847,0.4779,0.7122,-0.1473,0.0088,0.0237,0.0273,0.0081,0.0792,
5.207188,0.4764,0.4691,0.7315,-0.1473,0.0088,0.0237,0.0273,0.0081,0.0792,
5.225383,0.4637,0.4623,0.7401,-0.1473,0.0088,0.0237,0.0273,0.0081,0.0792,
5.244443,0.4637,0.4623,0.7401,-0.1473,0.0088,0.0237,-0.0133,0.0126,0.1214,
5.254197,0.4441,0.4510,0.7163,-0.1473,0.0088,0.0237,-0.0133,0.0126,0.1214,
5.274725,0.4417,0.4420,0.7114,-0.1473,0.0088,0.0237,-0.0133,0.0126,0.1214,
5.275998,0.4417,0.4420,0.7114,-0.0660,0.0389,-0.1365,-0.0133,0.0126,0.1214,
5.292001,0.4104,0.4315,0.7083,-0.0660,0.0389,-0.1365,-0.0133,0.0126,0.1214,
5.305384,0.4104,0.4315,0.7083,-0.0660,0.0389,-0.1365,-0.0120,-0.0895,0.2779,
5.345726,0.4104,0.4315,0.7083,-0.4857,-0.1300,-0.1426,-0.0120,-0.0895,0.2779,
5.347328,0.3651,0.4251,0.7376,-0.4857,-0.1300,-0.1426,-0.0120,-0.0895,0.2779,
5.347912,0.3033,0.4134,0.7613,-0.4857,-0.1300,-0.1426,-0.0120,-0.0895,0.2779,
5.348530,0.2337,0.4185,0.7730,-0.4857,-0.1300,-0.1426,-0.0120,-0.0895,0.2779,
5.365036,0.2337,0.4185,0.7730,-0.4857,-0.1300,-0.1426,0.1169,-0.2581,0.8048,
5.366646,0.2447,0.4540,0.7628,-0.4857,-0.1300,-0.1426,0.1169,-0.2581,0.8048,
5.415241,0.2447,0.4540,0.7628,-1.9776,-0.2422,0.2210,0.1169,-0.2581,0.8048,
5.416814,0.2141,0.5138,0.8131,-1.9776,-0.2422,0.2210,0.1169,-0.2581,0.8048,
5.417452,0.1836,0.5798,0.9625,-1.9776,-0.2422,0.2210,0.1169,-0.2581,0.8048,
5.418487,0.1836,0.5798,0.9625,-2.3752,0.1141,0.3303,0.1169,-0.2581,0.8048,
5.426009,0.2077,0.6525,1.0710,-2.3752,0.1141,0.3303,0.1169,-0.2581,0.8048,
5.445230,0.2077,0.6525,1.0710,-2.3752,0.1141,0.3303,0.2826,-0.0891,1.7266,
5.454127,0.2627,0.7798,1.2054,-2.3752,0.1141,0.3303,0.2826,-0.0891,1.7266,
5.485667,0.2627,0.7798,1.2054,-3.8768,1.6929,1.7107,0.2826,-0.0891,1.7266,
5.486992,0.4402,0.9590,1.5132,-3.8768,1.6929,1.7107,0.2826,-0.0891,1.7266,
5.487529,0.7392,1.0521,1.8452,-3.8768,1.6929,1.7107,0.2826,-0.0891,1.7266,
5.506406,0.7392,1.0521,1.8452,-3.8768,1.6929,1.7107,1.3755,0.1041,2.5507,
5.553862,0.9440,1.0809,1.7911,-3.8768,1.6929,1.7107,1.3755,0.1041,2.5507,
5.555429,0.9992,1.1983,1.4228,-3.8768,1.6929,1.7107,1.3755,0.1041,2.5507,
5.556035,1.0418,1.2550,1.1954,-3.8768,1.6929,1.7107,1.3755,0.1041,2.5507,
5.556616,1.0418,1.2550,1.1954,-1.7763,5.0288,7.5428,1.3755,0.1041,2.5507,
5.565591,1.0418,1.2550,1.1954,-1.7763,5.0288,7.5428,3.7344,1.5165,2.0626,
5.626315,1.0418,1.2550,1.1954,3.7850,6.7292,7.4650,3.7344,1.5165,2.0626,
5.627701,1.0672,1.2047,0.9715,3.7850,6.7292,7.4650,3.7344,1.5165,2.0626,
5.628272,1.1276,1.2225,0.7486,3.7850,6.7292,7.4650,3.7344,1.5165,2.0626,
5.628818,1.1278,1.2973,0.9139,3.7850,6.7292,7.4650,3.7344,1.5165,2.0626,
5.629410,1.2623,1.2575,1.1835,3.7850,6.7292,7.4650,3.7344,1.5165,2.0626,
5.646287,1.2623,1.2575,1.1835,3.7850,6.7292,7.4650,4.5070,0.7688,1.2278,
5.654107,1.3945,1.1964,1.1600,3.7850,6.7292,7.4650,4.5070,0.7688,1.2278,
5.692087,1.3585,1.1584,1.0598,3.7850,6.7292,7.4650,4.5070,0.7688,1.2278,
5.693702,1.3964,1.1179,1.1470,3.7850,6.7292,7.4650,4.5070,0.7688,1.2278,
5.696087,1.3964,1.1179,1.1470,5.0216,6.0552,4.2281,4.5070,0.7688,1.2278,
5.706469,1.3964,1.1179,1.1470,5.0216,6.0552,4.2281,5.1692,-0.7710,0.5007,
5.752640,1.5819,1.0191,1.3184,5.0216,6.0552,4.2281,5.1692,-0.7710,0.5007,
5.754322,1.5710,0.8443,1.2059,5.0216,6.0552,4.2281,5.1692,-0.7710,0.5007,
5.755015,1.3855,0.6837,0.9564,5.0216,6.0552,4.2281,5.1692,-0.7710,0.5007,
5.768727,1.3855,0.6837,0.9564,5.0216,6.0552,4.2281,4.9647,-1.7225,-0.7750,
5.770990,1.3104,0.5571,0.8552,5.0216,6.0552,4.2281,4.9647,-1.7225,-0.7750,
5.776601,1.3950,0.4769,0.7725,5.0216,6.0552,4.2281,4.9647,-1.7225,-0.7750,
5.778744,1.4209,0.4759,0.7574,5.0216,6.0552,4.2281,4.9647,-1.7225,-0.7750,
5.781126,1.4312,0.4593,0.7359,5.0216,6.0552,4.2281,4.9647,-1.7225,-0.7750,
5.784012,1.4507,0.4422,0.7178,5.0216,6.0552,4.2281,4.9647,-1.7225,-0.7750,
5.787495,1.4668,0.4275,0.6924,5.0216,6.0552,4.2281,4.9647,-1.7225,-0.7750,
5.788825,1.4747,0.4129,0.6674,5.0216,6.0552,4.2281,4.9647,-1.7225,-0.7750,
5.791247,1.4762,0.4031,0.6455,5.0216,6.0552,4.2281,4.9647,-1.7225,-0.7750,
5.794464,1.4673,0.3943,0.6205,5.0216,6.0552,4.2281,4.9647,-1.7225,-0.7750,
5.796080,1.4502,0.3747,0.5956,5.0216,6.0552,4.2281,4.9647,-1.7225,-0.7750,
5.798762,1.4365,0.3655,0.5687,5.0216,6.0552,4.2281,4.9647,-1.7225,-0.7750,
5.801318,1.4121,0.3528,0.5418,5.0216,6.0552,4.2281,4.9647,-1.7225,-0.7750,
5.803860,1.3881,0.3381,0.5218,5.0216,6.0552,4.2281,4.9647,-1.7225,-0.7750,
5.807394,1.3627,0.3210,0.4924,5.0216,6.0552,4.2281,4.9647,-1.7225,-0.7750,
5.808436,1.3436,0.3034,0.4704,5.0216,6.0552,4.2281,4.9647,-1.7225,-0.7750,
5.811177,1.3192,0.2907,0.4529,5.0216,6.0552,4.2281,4.9647,-1.7225,-0.7750,
5.814065,1.2996,0.2770,0.4303,5.0216,6.0552,4.2281,4.9647,-1.7225,-0.7750,
5.816518,1.2874,0.2613,0.4113,5.0216,6.0552,4.2281,4.9647,-1.7225,-0.7750,
5.820116,1.2728,0.2432,0.3941,5.0216,6.0552,4.2281,4.9647,-1.7225,-0.7750,
5.821900,1.2576,0.2276,0.3771,5.0216,6.0552,4.2281,4.9647,-1.7225,-0.7750,
5.823708,1.2434,0.2114,0.3604,5.0216,6.0552,4.2281,4.9647,-1.7225,-0.7750,
5.827600,1.2322,0.1963,0.3512,5.0216,6.0552,4.2281,4.9647,-1.7225,-0.7750,
5.828678,1.2239,0.1826,0.3369,5.0216,6.0552,4.2281,4.9647,-1.7225,-0.7750,
5.831299,1.2131,0.1743,0.3247,5.0216,6.0552,4.2281,4.9647,-1.7225,-0.7750,
5.834574,1.2029,0.1675,0.3076,5.0216,6.0552,4.2281,4.9647,-1.7225,-0.7750,
5.836384,1.1916,0.1597,0.2959,5.0216,6.0552,4.2281,4.9647,-1.7225,-0.7750,
5.839207,1.1735,0.1572,0.2837,5.0216,6.0552,4.2281,4.9647,-1.7225,-0.7750,
5.840329,1.1735,0.1572,0.2837,6.9778,3.8848,8.5689,4.9647,-1.7225,-0.7750,
5.841169,1.1735,0.1572,0.2837,7.1627,3.1132,11.4104,4.9647,-1.7225,-0.7750,
5.841915,1.1735,0.1572,0.2837,7.9345,3.0343,14.2709,4.9647,-1.7225,-0.7750,
5.842697,1.1623,0.1552,0.2749,7.9345,3.0343,14.2709,4.9647,-1.7225,-0.7750,
5.845161,1.1506,0.1557,0.2685,7.9345,3.0343,14.2709,4.9647,-1.7225,-0.7750,
5.847633,1.1506,0.1557,0.2685,7.9345,3.0343,14.2709,4.2015,-2.7376,-1.2374,
5.848353,1.1359,0.1602,0.2636,7.9345,3.0343,14.2709,4.2015,-2.7376,-1.2374,
5.848956,1.1354,0.1602,0.2563,7.9345,3.0343,14.2709,4.2015,-2.7376,-1.2374,
5.852127,1.1256,0.1616,0.2490,7.9345,3.0343,14.2709,4.2015,-2.7376,-1.2374,
5.854821,1.1232,0.1587,0.2461,7.9345,3.0343,14.2709,4.2015,-2.7376,-1.2374,
5.856849,1.1266,0.1562,0.2412,7.9345,3.0343,14.2709,4.2015,-2.7376,-1.2374,
5.907023,1.1266,0.1562,0.2412,7.9345,3.0343,14.2709,2.7217,-3.3404,-1.5877,
5.924964,1.0481,0.0841,0.2336,7.9345,3.0343,14.2709,2.7217,-3.3404,-1.5877,
5.947797,0.8110,-0.0161,0.1695,7.9345,3.0343,14.2709,2.7217,-3.3404,-1.5877,
5.950162,0.8110,-0.0161,0.1695,8.7796,-4.7079,10.3252,2.7217,-3.3404,-1.5877,
5.967282,0.8110,-0.0161,0.1695,8.7796,-4.7079,10.3252,1.8892,-3.4648,-1.5198,
5.969307,0.6311,-0.0821,0.1536,8.7796,-4.7079,10.3252,1.8892,-3.4648,-1.5198,
5.991493,0.4891,-0.1320,0.0246,8.7796,-4.7079,10.3252,1.8892,-3.4648,-1.5198,
6.017374,0.4891,-0.1320,0.0246,6.9272,-6.8771,8.8221,1.8892,-3.4648,-1.5198,
6.019855,0.4057,-0.1305,-0.1492,6.9272,-6.8771,8.8221,1.8892,-3.4648,-1.5198,
6.020570,0.3444,-0.1082,-0.2318,6.9272,-6.8771,8.8221,1.8892,-3.4648,-1.5198,
6.021212,0.3444,-0.1082,-0.2318,8.8245,-5.8973,9.8892,1.8892,-3.4648,-1.5198,
6.038306,0.2324,-0.1114,-0.2296,8.8245,-5.8973,9.8892,1.8892,-3.4648,-1.5198,
6.047306,0.2324,-0.1114,-0.2296,8.8245,-5.8973,9.8892,2.1494,-4.0511,-0.3421,
6.057582,0.1254,-0.1188,-0.2260,8.8245,-5.8973,9.8892,2.1494,-4.0511,-0.3421,
6.087253,0.0271,-0.1063,-0.2885,8.8245,-5.8973,9.8892,2.1494,-4.0511,-0.3421,
6.087773,0.0271,-0.1063,-0.2885,5.4596,-6.5929,7.3859,2.1494,-4.0511,-0.3421,
6.107561,0.0491,-0.0958,-0.3294,5.4596,-6.5929,7.3859,2.1494,-4.0511,-0.3421,
6.108205,0.0491,-0.0958,-0.3294,5.4596,-6.5929,7.3859,1.7498,-4.0631,0.9160,
6.124263,0.0518,-0.0775,-0.3785,5.4596,-6.5929,7.3859,1.7498,-4.0631,0.9160,
6.153242,0.0012,-0.0635,-0.3316,5.4596,-6.5929,7.3859,1.7498,-4.0631,0.9160,
6.157253,0.0012,-0.0635,-0.3316,3.9038,-5.7386,5.5638,1.7498,-4.0631,0.9160,
6.157629,0.0418,-0.0653,-0.2406,3.9038,-5.7386,5.5638,1.7498,-4.0631,0.9160,
6.167608,0.0418,-0.0653,-0.2406,3.9038,-5.7386,5.5638,1.4482,-4.2668,1.9482,
6.191500,0.0631,-0.0425,-0.2338,3.9038,-5.7386,5.5638,1.4482,-4.2668,1.9482,
6.228496,-0.0690,0.0416,-0.2365,3.9038,-5.7386,5.5638,1.4482,-4.2668,1.9482,
6.230153,-0.1658,0.0035,-0.1333,3.9038,-5.7386,5.5638,1.4482,-4.2668,1.9482,
6.230934,-0.1658,0.0035,-0.1333,4.3714,-5.1751,4.3615,1.4482,-4.2668,1.9482,
6.248194,-0.1337,-0.0679,0.0072,4.3714,-5.1751,4.3615,1.4482,-4.2668,1.9482,
6.249594,-0.1337,-0.0679,0.0072,4.3714,-5.1751,4.3615,0.6343,-3.4206,2.1134,
6.258306,-0.1135,-0.1608,-0.0106,4.3714,-5.1751,4.3615,0.6343,-3.4206,2.1134,
6.298144,-0.1135,-0.1608,-0.0106,4.0140,-4.8383,4.9834,0.6343,-3.4206,2.1134,
6.299321,-0.3175,-0.1962,-0.1644,4.0140,-4.8383,4.9834,0.6343,-3.4206,2.1134,
6.300042,-0.3904,-0.1408,-0.2074,4.0140,-4.8383,4.9834,0.6343,-3.4206,2.1134,
6.309467,-0.3904,-0.1408,-0.2074,4.0140,-4.8383,4.9834,0.5104,-3.0380,2.7673,
6.324947,-0.1963,-0.0701,0.0786,4.0140,-4.8383,4.9834,0.5104,-3.0380,2.7673,
6.353860,-0.0064,0.0308,0.3863,4.0140,-4.8383,4.9834,0.5104,-3.0380,2.7673,
6.364975,-0.1002,0.1795,0.3164,4.0140,-4.8383,4.9834,0.5104,-3.0380,2.7673,
6.369327,-0.1002,0.1795,0.3164,2.4387,-6.8838,4.8316,0.5104,-3.0380,2.7673,
6.370463,-0.1002,0.1795,0.3164,2.4387,-6.8838,4.8316,-0.7206,-2.9415,3.6362,
6.391433,-0.1352,0.2824,0.2143,2.4387,-6.8838,4.8316,-0.7206,-2.9415,3.6362,
6.438890,-0.1352,0.2824,0.2143,3.3272,-5.8406,7.0321,-0.7206,-2.9415,3.6362,
6.440363,0.1369,0.3158,0.4746,3.3272,-5.8406,7.0321,-0.7206,-2.9415,3.6362,
6.440954,0.0772,0.4447,0.5567,3.3272,-5.8406,7.0321,-0.7206,-2.9415,3.6362,
6.441468,-0.0814,0.4505,0.7349,3.3272,-5.8406,7.0321,-0.7206,-2.9415,3.6362,
6.441916,-0.0814,0.4505,0.7349,2.1102,-7.1656,5.3361,-0.7206,-2.9415,3.6362,
6.448956,-0.0814,0.4505,0.7349,2.1102,-7.1656,5.3361,-2.5263,-1.9158,3.6664,
6.459011,0.0765,0.4369,1.1825,2.1102,-7.1656,5.3361,-2.5263,-1.9158,3.6664,
6.508926,0.0765,0.4369,1.1825,2.1102,-7.1656,5.3361,-3.0852,-1.9534,3.4217,
6.510745,0.1613,0.6077,1.2258,2.1102,-7.1656,5.3361,-3.0852,-1.9534,3.4217,
6.511347,0.1574,0.7008,1.0343,2.1102,-7.1656,5.3361,-3.0852,-1.9534,3.4217,
6.512115,0.1574,0.7008,1.0343,1.9153,-4.9202,6.1700,-3.0852,-1.9534,3.4217,
6.524841,0.2197,0.5370,0.7948,1.9153,-4.9202,6.1700,-3.0852,-1.9534,3.4217,
6.553800,-0.0800,0.6256,1.2224,1.9153,-4.9202,6.1700,-3.0852,-1.9534,3.4217,
6.569379,-0.0800,0.6256,1.2224,1.9153,-4.9202,6.1700,-3.4848,-0.8875,3.5908,
6.570516,0.0427,0.7556,1.8391,1.9153,-4.9202,6.1700,-3.4848,-0.8875,3.5908,
6.579743,0.4950,0.8426,1.8160,1.9153,-4.9202,6.1700,-3.4848,-0.8875,3.5908,
6.582389,0.4950,0.8426,1.8160,1.3725,-3.1632,9.6955,-3.4848,-0.8875,3.5908,
6.629614,0.4950,0.8426,1.8160,1.3725,-3.1632,9.6955,-2.2796,-0.4069,4.8026,
6.631383,0.6610,1.0404,1.5902,1.3725,-3.1632,9.6955,-2.2796,-0.4069,4.8026,
6.632238,0.7666,1.1171,1.5303,1.3725,-3.1632,9.6955,-2.2796,-0.4069,4.8026,
6.649324,1.0259,1.0859,1.5415,1.3725,-3.1632,9.6955,-2.2796,-0.4069,4.8026,
6.650956,1.0259,1.0859,1.5415,-1.1547,-1.1649,12.0679,-2.2796,-0.4069,4.8026,
6.709678,1.0259,1.0859,1.5415,-1.1547,-1.1649,12.0679,-1.7707,1.0503,4.5388,
6.711440,1.0012,1.0475,1.4670,-1.1547,-1.1649,12.0679,-1.7707,1.0503,4.5388,
6.712119,0.9516,1.0291,1.6037,-1.1547,-1.1649,12.0679,-1.7707,1.0503,4.5388,
6.712748,1.0978,0.9915,1.6609,-1.1547,-1.1649,12.0679,-1.7707,1.0503,4.5388,
6.720831,1.0978,0.9915,1.6609,3.6928,3.7500,11.2375,-1.7707,1.0503,4.5388,
6.722420,1.2278,1.0181,1.4135,3.6928,3.7500,11.2375,-1.7707,1.0503,4.5388,
6.754150,1.3546,1.0086,1.2170,3.6928,3.7500,11.2375,-1.7707,1.0503,4.5388,
6.769820,1.5279,0.9891,1.1913,3.6928,3.7500,11.2375,-1.7707,1.0503,4.5388,
6.771275,1.5279,0.9891,1.1913,3.6928,3.7500,11.2375,-0.2487,1.6258,4.4173,
6.790145,1.5279,0.9891,1.1913,4.5513,4.8381,10.2437,-0.2487,1.6258,4.4173,
6.792118,1.4940,0.9724,1.2137,4.5513,4.8381,10.2437,-0.2487,1.6258,4.4173,
6.830250,1.4940,0.9724,1.2137,4.5513,4.8381,10.2437,0.3631,2.5074,3.3411,
6.832038,1.2847,0.9027,1.2568,4.5513,4.8381,10.2437,0.3631,2.5074,3.3411,
6.832835,1.2645,0.7622,1.2629,4.5513,4.8381,10.2437,0.3631,2.5074,3.3411,
6.853847,1.3028,0.6114,1.1971,4.5513,4.8381,10.2437,0.3631,2.5074,3.3411,
6.860222,1.3309,0.4902,1.2326,4.5513,4.8381,10.2437,0.3631,2.5074,3.3411,
6.861402,1.3309,0.4902,1.2326,7.5598,5.8277,6.1416,0.3631,2.5074,3.3411,
6.862261,1.3309,0.4902,1.2326,7.7773,6.6595,5.1841,0.3631,2.5074,3.3411,
6.881531,1.2935,0.3615,1.1451,7.7773,6.6595,5.1841,0.3631,2.5074,3.3411,
6.910678,1.1918,0.2252,0.9945,7.7773,6.6595,5.1841,0.3631,2.5074,3.3411,
6.912382,1.1918,0.2252,0.9945,7.7773,6.6595,5.1841,1.8788,2.6632,3.2085,
6.924499,1.2977,0.1880,0.9559,7.7773,6.6595,5.1841,1.8788,2.6632,3.2085,
6.931426,1.2977,0.1880,0.9559,6.8662,3.6338,4.7717,1.8788,2.6632,3.2085,
6.953825,1.3828,0.1817,0.6640,6.8662,3.6338,4.7717,1.8788,2.6632,3.2085,
6.970819,1.3828,0.1817,0.6640,6.8662,3.6338,4.7717,3.0415,2.2116,2.9966,
6.972791,1.3627,0.2120,0.3651,6.8662,3.6338,4.7717,3.0415,2.2116,2.9966,
6.991392,1.1957,0.2298,0.4025,6.8662,3.6338,4.7717,3.0415,2.2116,2.9966,
7.001164,1.0672,0.2335,0.6134,6.8662,3.6338,4.7717,3.0415,2.2116,2.9966,
7.003260,1.0672,0.2335,0.6134,7.0069,-0.8107,2.2133,3.0415,2.2116,2.9966,
7.031811,1.0777,0.2335,0.6046,7.0069,-0.8107,2.2133,3.0415,2.2116,2.9966,
7.033615,1.0777,0.2335,0.6046,7.0069,-0.8107,2.2133,2.0527,1.7604,1.6258,
7.053708,1.0320,0.2533,0.3162,7.0069,-0.8107,2.2133,2.0527,1.7604,1.6258,
7.071193,1.0198,0.2812,0.2497,7.0069,-0.8107,2.2133,2.0527,1.7604,1.6258,
7.072772,1.0198,0.2812,0.2497,6.9297,-1.4530,-3.0020,2.0527,1.7604,1.6258,
7.111302,1.0198,0.2812,0.2497,6.9297,-1.4530,-3.0020,1.2567,0.8201,0.5792,
7.113250,0.8949,0.2719,0.3524,6.9297,-1.4530,-3.0020,1.2567,0.8201,0.5792,
7.114045,0.7582,0.2574,0.5482,6.9297,-1.4530,-3.0020,1.2567,0.8201,0.5792,
7.125505,0.5873,0.2442,0.6569,6.9297,-1.4530,-3.0020,1.2567,0.8201,0.5792,
7.141370,0.5345,0.2731,0.7310,6.9297,-1.4530,-3.0020,1.2567,0.8201,0.5792,
7.143453,0.5345,0.2731,0.7310,5.0610,-1.4638,-3.8224,1.2567,0.8201,0.5792,
7.171305,0.5527,0.3247,0.7332,5.0610,-1.4638,-3.8224,1.2567,0.8201,0.5792,
7.172453,0.5527,0.3247,0.7332,5.0610,-1.4638,-3.8224,0.3760,0.3402,0.0980,
7.192716,0.5619,0.3535,0.6269,5.0610,-1.4638,-3.8224,0.3760,0.3402,0.0980,
7.211602,0.5637,0.3777,0.5685,5.0610,-1.4638,-3.8224,0.3760,0.3402,0.0980,
7.213339,0.5637,0.3777,0.5685,1.6537,-1.5540,-1.5908,0.3760,0.3402,0.0980,
7.231964,0.5138,0.3890,0.6191,1.6537,-1.5540,-1.5908,0.3760,0.3402,0.0980,
7.233378,0.5138,0.3890,0.6191,1.6537,-1.5540,-1.5908,0.4268,-0.1490,0.1859,
7.254781,0.4517,0.3965,0.7437,1.6537,-1.5540,-1.5908,0.4268,-0.1490,0.1859,
7.282421,0.4517,0.3965,0.7437,0.4711,-0.7792,-1.1146,0.4268,-0.1490,0.1859,
7.284725,0.4136,0.4212,0.8292,0.4711,-0.7792,-1.1146,0.4268,-0.1490,0.1859,
7.285484,0.4424,0.4459,0.8212,0.4711,-0.7792,-1.1146,0.4268,-0.1490,0.1859,
7.286265,0.4424,0.4459,0.8212,0.4469,-0.7553,-1.0913,0.4268,-0.1490,0.1859,
7.311783,0.4693,0.4669,0.7386,0.4469,-0.7553,-1.0913,0.4268,-0.1490,0.1859,
7.313252,0.4693,0.4669,0.7386,0.4469,-0.7553,-1.0913,0.0622,-0.0879,0.0515,
7.324934,0.4883,0.4882,0.7205,0.4469,-0.7553,-1.0913,0.0622,-0.0879,0.0515,
7.352115,0.4842,0.4909,0.7503,0.4469,-0.7553,-1.0913,0.0622,-0.0879,0.0515,
7.354474,0.4842,0.4909,0.7503,-0.7388,-0.2387,0.3943,0.0622,-0.0879,0.0515,
7.365789,0.4918,0.4972,0.7613,-0.7388,-0.2387,0.3943,0.0622,-0.0879,0.0515,
7.371957,0.4918,0.4972,0.7613,-0.7388,-0.2387,0.3943,0.1000,-0.1296,-0.0202,
7.394139,0.4808,0.4999,0.7498,-0.7388,-0.2387,0.3943,0.1000,-0.1296,-0.0202,
7.422605,0.4808,0.4999,0.7498,-0.3484,0.3722,0.0514,0.1000,-0.1296,-0.0202,
7.424667,0.4683,0.4882,0.7296,-0.3484,0.3722,0.0514,0.1000,-0.1296,-0.0202,
7.425183,0.4524,0.4813,0.7423,-0.3484,0.3722,0.0514,0.1000,-0.1296,-0.0202,
7.432075,0.4524,0.4813,0.7423,-0.3484,0.3722,0.0514,-0.0539,-0.0409,-0.2342,
7.453702,0.4201,0.4662,0.7586,-0.3484,0.3722,0.0514,-0.0539,-0.0409,-0.2342,
7.492777,0.4201,0.4662,0.7586,-0.3997,0.3972,0.0772,-0.0539,-0.0409,-0.2342,
7.494905,0.4040,0.4581,0.7960,-0.3997,0.3972,0.0772,-0.0539,-0.0409,-0.2342,
7.495613,0.4087,0.4696,0.8034,-0.3997,0.3972,0.0772,-0.0539,-0.0409,-0.2342,
7.512917,0.4267,0.4684,0.7880,-0.3997,0.3972,0.0772,-0.0539,-0.0409,-0.2342,
7.516658,0.4267,0.4684,0.7880,-0.3997,0.3972,0.0772,-0.0627,-0.0405,-0.2099,
7.524824,0.4267,0.4740,0.7762,-0.3997,0.3972,0.0772,-0.0627,-0.0405,-0.2099,
7.553808,0.4368,0.4769,0.7364,-0.3997,0.3972,0.0772,-0.0627,-0.0405,-0.2099,
7.564853,0.4664,0.4911,0.7369,-0.3997,0.3972,0.0772,-0.0627,-0.0405,-0.2099,
7.566375,0.4664,0.4911,0.7369,-0.9265,0.1005,0.4942,-0.0627,-0.0405,-0.2099,
7.572841,0.4664,0.4911,0.7369,-0.9265,0.1005,0.4942,0.1374,-0.0373,0.0362,
7.591490,0.4994,0.5087,0.7305,-0.9265,0.1005,0.4942,0.1374,-0.0373,0.0362,
7.633020,0.4994,0.5087,0.7305,-0.9265,0.1005,0.4942,0.0879,-0.0126,0.0186,
7.634423,0.5204,0.5168,0.6958,-0.9265,0.1005,0.4942,0.0879,-0.0126,0.0186,
7.635016,0.5030,0.5226,0.6875,-0.9265,0.1005,0.4942,0.0879,-0.0126,0.0186,
7.635595,0.5030,0.5226,0.6875,-0.6787,0.1835,0.2426,0.0879,-0.0126,0.0186,
7.653810,0.4742,0.5180,0.7594,-0.6787,0.1835,0.2426,0.0879,-0.0126,0.0186,
7.703336,0.4742,0.5180,0.7594,-0.0642,0.5137,-0.1750,0.0879,-0.0126,0.0186,
7.705380,0.4488,0.5090,0.7774,-0.0642,0.5137,-0.1750,0.0879,-0.0126,0.0186,
7.706166,0.4397,0.4987,0.7642,-0.0642,0.5137,-0.1750,0.0879,-0.0126,0.0186,
7.706802,0.4532,0.4977,0.7650,-0.0642,0.5137,-0.1750,0.0879,-0.0126,0.0186,
7.707622,0.4532,0.4977,0.7650,-0.0062,0.5049,-0.2114,0.0879,-0.0126,0.0186,
7.712896,0.4532,0.4977,0.7650,-0.0062,0.5049,-0.2114,-0.0762,0.0553,-0.1144,
7.724971,0.4600,0.4902,0.7642,-0.0062,0.5049,-0.2114,-0.0762,0.0553,-0.1144,
7.754129,0.4502,0.4830,0.7537,-0.0062,0.5049,-0.2114,-0.0762,0.0553,-0.1144,
7.774437,0.4498,0.4789,0.7318,-0.0062,0.5049,-0.2114,-0.0762,0.0553,-0.1144,
7.776086,0.4498,0.4789,0.7318,-0.5210,0.3449,0.3806,-0.0762,0.0553,-0.1144,
7.777455,0.4498,0.4789,0.7318,-0.5210,0.3449,0.3806,0.0403,-0.0033,-0.0342,
7.793399,0.4637,0.4842,0.7315,-0.5210,0.3449,0.3806,0.0403,-0.0033,-0.0342,
7.794880,0.4773,0.4803,0.7197,-0.5210,0.3449,0.3806,0.0403,-0.0033,-0.0342,
7.796128,0.4817,0.4872,0.7257,-0.5210,0.3449,0.3806,0.0403,-0.0033,-0.0342,
7.798597,0.4817,0.4858,0.7266,-0.5210,0.3449,0.3806,0.0403,-0.0033,-0.0342,
7.801751,0.4832,0.4828,0.7236,-0.5210,0.3449,0.3806,0.0403,-0.0033,-0.0342,
7.804304,0.4808,0.4867,0.7236,-0.5210,0.3449,0.3806,0.0403,-0.0033,-0.0342,
7.805623,0.4808,0.4867,0.7227,-0.5210,0.3449,0.3806,0.0403,-0.0033,-0.0342,
7.809855,0.4769,0.4916,0.7217,-0.5210,0.3449,0.3806,0.0403,-0.0033,-0.0342,
7.811462,0.4788,0.4907,0.7212,-0.5210,0.3449,0.3806,0.0403,-0.0033,-0.0342,
7.813626,0.4749,0.4882,0.7197,-0.5210,0.3449,0.3806,0.0403,-0.0033,-0.0342,
7.815687,0.4700,0.4877,0.7212,-0.5210,0.3449,0.3806,0.0403,-0.0033,-0.0342,
7.820413,0.4705,0.4853,0.7212,-0.5210,0.3449,0.3806,0.0403,-0.0033,-0.0342,
7.821080,0.4676,0.4872,0.7257,-0.5210,0.3449,0.3806,0.0403,-0.0033,-0.0342,
7.823537,0.4700,0.4858,0.7276,-0.5210,0.3449,0.3806,0.0403,-0.0033,-0.0342,
7.825716,0.4666,0.4882,0.7349,-0.5210,0.3449,0.3806,0.0403,-0.0033,-0.0342,
7.829266,0.4661,0.4867,0.7310,-0.5210,0.3449,0.3806,0.0403,-0.0033,-0.0342,
7.832352,0.4656,0.4882,0.7398,-0.5210,0.3449,0.3806,0.0403,-0.0033,-0.0342,
7.833593,0.4646,0.4907,0.7413,-0.5210,0.3449,0.3806,0.0403,-0.0033,-0.0342,
7.834350,0.4646,0.4907,0.7413,-0.5210,0.3449,0.3806,0.0152,-0.0126,-0.0011,
7.835802,0.4632,0.4916,0.7471,-0.5210,0.3449,0.3806,0.0152,-0.0126,-0.0011,
7.838357,0.4661,0.4916,0.7501,-0.5210,0.3449,0.3806,0.0152,-0.0126,-0.0011,
7.842382,0.4627,0.4936,0.7501,-0.5210,0.3449,0.3806,0.0152,-0.0126,-0.0011,
7.843460,0.4607,0.4960,0.7506,-0.5210,0.3449,0.3806,0.0152,-0.0126,-0.0011,
7.845753,0.4651,0.4941,0.7520,-0.5210,0.3449,0.3806,0.0152,-0.0126,-0.0011,
7.848313,0.4637,0.4955,0.7564,-0.5210,0.3449,0.3806,0.0152,-0.0126,-0.0011,
7.851796,0.4681,0.4994,0.7559,-0.5210,0.3449,0.3806,0.0152,-0.0126,-0.0011,
7.854784,0.4695,0.4985,0.7633,-0.5210,0.3449,0.3806,0.0152,-0.0126,-0.0011,
7.855979,0.4744,0.4985,0.7647,-0.5210,0.3449,0.3806,0.0152,-0.0126,-0.0011,
7.856644,0.4744,0.4985,0.7647,-0.4323,0.1224,0.1392,0.0152,-0.0126,-0.0011,
7.858290,0.4764,0.5009,0.7662,-0.4323,0.1224,0.1392,0.0152,-0.0126,-0.0011,
7.860718,0.4764,0.4990,0.7637,-0.4323,0.1224,0.1392,0.0152,-0.0126,-0.0011,
7.865203,0.4798,0.4955,0.7637,-0.4323,0.1224,0.1392,0.0152,-0.0126,-0.0011,
7.866071,0.4798,0.4960,0.7642,-0.4323,0.1224,0.1392,0.0152,-0.0126,-0.0011,
7.868225,0.4813,0.4985,0.7598,-0.4323,0.1224,0.1392,0.0152,-0.0126,-0.0011,
7.870883,0.4803,0.4994,0.7589,-0.4323,0.1224,0.1392,0.0152,-0.0126,-0.0011,
7.873584,0.4778,0.5053,0.7574,-0.4323,0.1224,0.1392,0.0152,-0.0126,-0.0011,
7.876498,0.4798,0.5038,0.7511,-0.4323,0.1224,0.1392,0.0152,-0.0126,-0.0011,
7.878359,0.4803,0.5014,0.7486,-0.4323,0.1224,0.1392,0.0152,-0.0126,-0.0011,
7.881026,0.4837,0.5004,0.7496,-0.4323,0.1224,0.1392,0.0152,-0.0126,-0.0011,
7.884865,0.4817,0.5004,0.7496,-0.4323,0.1224,0.1392,0.0152,-0.0126,-0.0011,
7.885997,0.4881,0.5014,0.7476,-0.4323,0.1224,0.1392,0.0152,-0.0126,-0.0011,
7.888505,0.4896,0.5058,0.7457,-0.4323,0.1224,0.1392,0.0152,-0.0126,-0.0011,
7.890852,0.4896,0.5077,0.7447,-0.4323,0.1224,0.1392,0.0152,-0.0126,-0.0011,
7.893663,0.4945,0.5082,0.7413,-0.4323,0.1224,0.1392,0.0152,-0.0126,-0.0011,
7.899668,0.4896,0.5058,0.7374,-0.4323,0.1224,0.1392,0.0152,-0.0126,-0.0011,
7.900532,0.4876,0.5033,0.7349,-0.4323,0.1224,0.1392,0.0152,-0.0126,-0.0011,
7.902239,0.4842,0.5033,0.7296,-0.4323,0.1224,0.1392,0.0152,-0.0126,-0.0011,
7.903415,0.4803,0.5029,0.7281,-0.4323,0.1224,0.1392,0.0152,-0.0126,-0.0011,
7.905838,0.4773,0.5053,0.7236,-0.4323,0.1224,0.1392,0.0152,-0.0126,-0.0011,
7.911864,0.4749,0.5038,0.7236,-0.4323,0.1224,0.1392,0.0152,-0.0126,-0.0011,
7.912649,0.4690,0.5024,0.7227,-0.4323,0.1224,0.1392,0.0152,-0.0126,-0.0011,
7.914178,0.4690,0.5024,0.7227,-0.4323,0.1224,0.1392,-0.0545,-0.0083,-0.0292,
7.914768,0.4651,0.4994,0.7227,-0.4323,0.1224,0.1392,-0.0545,-0.0083,-0.0292,
7.916258,0.4583,0.5019,0.7217,-0.4323,0.1224,0.1392,-0.0545,-0.0083,-0.0292,
7.920527,0.4568,0.4965,0.7286,-0.4323,0.1224,0.1392,-0.0545,-0.0083,-0.0292,
7.922977,0.4549,0.4941,0.7301,-0.4323,0.1224,0.1392,-0.0545,-0.0083,-0.0292,
7.931948,0.4549,0.4941,0.7301,-0.2289,0.1744,0.0226,-0.0545,-0.0083,-0.0292,
7.974427,0.4549,0.4941,0.7301,-0.2289,0.1744,0.0226,-0.1000,0.0425,-0.0684,
7.988494,0.4410,0.4867,0.7572,-0.2289,0.1744,0.0226,-0.1000,0.0425,-0.0684,
8.024351,0.4410,0.4867,0.7572,-0.1281,0.2644,0.0611,-0.1000,0.0425,-0.0684,
8.026036,0.4646,0.4941,0.7398,-0.1281,0.2644,0.0611,-0.1000,0.0425,-0.0684,
8.026543,0.4756,0.4980,0.7180,-0.1281,0.2644,0.0611,-0.1000,0.0425,-0.0684,
8.027164,0.4756,0.4980,0.7180,-0.1078,0.2539,0.0382,-0.1000,0.0425,-0.0684,
8.034576,0.4756,0.4980,0.7180,-0.1078,0.2539,0.0382,0.0184,-0.0258,0.0535,
8.037670,0.4664,0.5004,0.7279,-0.1078,0.2539,0.0382,0.0184,-0.0258,0.0535,
8.055231,0.4595,0.5004,0.7701,-0.1078,0.2539,0.0382,0.0184,-0.0258,0.0535,
8.094814,0.4595,0.5004,0.7701,-0.2493,0.1796,-0.0337,0.0184,-0.0258,0.0535,
8.096585,0.4551,0.4972,0.7686,-0.2493,0.1796,-0.0337,0.0184,-0.0258,0.0535,
8.097203,0.4822,0.5014,0.7562,-0.2493,0.1796,-0.0337,0.0184,-0.0258,0.0535,
8.114691,0.4822,0.5014,0.7562,-0.2493,0.1796,-0.0337,-0.0313,-0.0004,0.0594,
8.121622,0.5021,0.5068,0.7381,-0.2493,0.1796,-0.0337,-0.0313,-0.0004,0.0594,
8.153613,0.4815,0.4990,0.7153,-0.2493,0.1796,-0.0337,-0.0313,-0.0004,0.0594,
8.165113,0.4732,0.4926,0.7479,-0.2493,0.1796,-0.0337,-0.0313,-0.0004,0.0594,
8.166362,0.4732,0.4926,0.7479,-0.2150,0.2286,0.2063,-0.0313,-0.0004,0.0594,
8.175876,0.4732,0.4926,0.7479,-0.2150,0.2286,0.2063,-0.0172,-0.0138,0.0265,
8.188169,0.4585,0.4880,0.7591,-0.2150,0.2286,0.2063,-0.0172,-0.0138,0.0265,
8.236160,0.4585,0.4880,0.7591,-0.0468,0.2056,-0.0350,-0.0172,-0.0138,0.0265,
8.237533,0.4585,0.4880,0.7591,-0.0468,0.2056,-0.0350,-0.0190,-0.0125,0.0415,
8.238521,0.4507,0.4877,0.7662,-0.0468,0.2056,-0.0350,-0.0190,-0.0125,0.0415,
8.239161,0.4644,0.4842,0.7716,-0.0468,0.2056,-0.0350,-0.0190,-0.0125,0.0415,
8.239832,0.4742,0.4850,0.7513,-0.0468,0.2056,-0.0350,-0.0190,-0.0125,0.0415,
8.255201,0.4764,0.4816,0.7557,-0.0468,0.2056,-0.0350,-0.0190,-0.0125,0.0415,
8.305572,0.4764,0.4816,0.7557,-0.2369,0.0915,0.1869,-0.0190,-0.0125,0.0415,
8.307578,0.4759,0.4808,0.7469,-0.2369,0.0915,0.1869,-0.0190,-0.0125,0.0415,
8.308121,0.4686,0.4825,0.7398,-0.2369,0.0915,0.1869,-0.0190,-0.0125,0.0415,
8.308821,0.4686,0.4825,0.7398,-0.2306,0.0964,0.1696,-0.0190,-0.0125,0.0415,
8.316435,0.4686,0.4825,0.7398,-0.2306,0.0964,0.1696,0.0064,-0.0091,0.0680,
8.321909,0.4847,0.4867,0.7594,-0.2306,0.0964,0.1696,0.0064,-0.0091,0.0680,
8.354141,0.4803,0.4882,0.7423,-0.2306,0.0964,0.1696,0.0064,-0.0091,0.0680,
8.365049,0.4744,0.4889,0.7381,-0.2306,0.0964,0.1696,0.0064,-0.0091,0.0680,
8.376562,0.4744,0.4889,0.7381,-0.2306,0.0964,0.1696,-0.0300,0.0013,0.0537,
8.377998,0.4791,0.4867,0.7696,-0.2306,0.0964,0.1696,-0.0300,0.0013,0.0537,
8.378565,0.4791,0.4867,0.7696,-0.1066,0.0788,0.0285,-0.0300,0.0013,0.0537,
8.436177,0.4781,0.4838,0.7547,-0.1066,0.0788,0.0285,-0.0300,0.0013,0.0537,
8.437815,0.4661,0.4838,0.7418,-0.1066,0.0788,0.0285,-0.0300,0.0013,0.0537,
8.438333,0.4661,0.4838,0.7418,-0.1066,0.0788,0.0285,-0.0288,-0.0144,0.0341,
8.446311,0.4703,0.4796,0.7603,-0.1066,0.0788,0.0285,-0.0288,-0.0144,0.0341,
8.447716,0.4703,0.4796,0.7603,-0.0680,0.1419,0.0409,-0.0288,-0.0144,0.0341,
8.455584,0.4817,0.4803,0.7625,-0.0680,0.1419,0.0409,-0.0288,-0.0144,0.0341,
8.516818,0.4817,0.4803,0.7625,-0.0680,0.1419,0.0409,-0.0024,-0.0301,0.0694,
8.518855,0.4817,0.4803,0.7625,-0.1399,0.0896,0.0768,-0.0024,-0.0301,0.0694,
8.519834,0.4749,0.4769,0.7279,-0.1399,0.0896,0.0768,-0.0024,-0.0301,0.0694,
8.520442,0.4781,0.4779,0.7347,-0.1399,0.0896,0.0768,-0.0024,-0.0301,0.0694,
8.521227,0.4629,0.4706,0.7327,-0.1399,0.0896,0.0768,-0.0024,-0.0301,0.0694,
8.553437,0.4639,0.4386,0.6882,-0.1399,0.0896,0.0768,-0.0024,-0.0301,0.0694,
8.576297,0.4639,0.4386,0.6882,-0.1399,0.0896,0.0768,-0.0402,-0.0372,0.1450,
8.577385,0.4488,0.4146,0.6213,-0.1399,0.0896,0.0768,-0.0402,-0.0372,0.1450,
8.586166,0.4138,0.3924,0.5648,-0.1399,0.0896,0.0768,-0.0402,-0.0372,0.1450,
8.587000,0.4138,0.3924,0.5648,-0.1601,0.0655,-0.1122,-0.0402,-0.0372,0.1450,
8.636679,0.4138,0.3924,0.5648,-0.1601,0.0655,-0.1122,-0.1526,-0.3711,0.4965,
8.637722,0.3544,0.3934,0.6029,-0.1601,0.0655,-0.1122,-0.1526,-0.3711,0.4965,
8.638485,0.3410,0.4041,0.7757,-0.1601,0.0655,-0.1122,-0.1526,-0.3711,0.4965,
8.653829,0.3568,0.4462,0.8591,-0.1601,0.0655,-0.1122,-0.1526,-0.3711,0.4965,
8.656594,0.3549,0.5014,0.8750,-0.1601,0.0655,-0.1122,-0.1526,-0.3711,0.4965,
8.657489,0.3549,0.5014,0.8750,-0.6961,-0.4331,-1.2346,-0.1526,-0.3711,0.4965,
8.696656,0.3615,0.5723,0.9348,-0.6961,-0.4331,-1.2346,-0.1526,-0.3711,0.4965,
8.697874,0.3615,0.5723,0.9348,-0.6961,-0.4331,-1.2346,0.1099,-0.2423,1.1314,
8.706808,0.2975,0.6290,1.0126,-0.6961,-0.4331,-1.2346,0.1099,-0.2423,1.1314,
8.722023,0.2813,0.6679,1.1255,-0.6961,-0.4331,-1.2346,0.1099,-0.2423,1.1314,
8.726846,0.2813,0.6679,1.1255,-1.8784,0.1368,0.7675,0.1099,-0.2423,1.1314,
8.727690,0.2813,0.6679,1.1255,-2.1953,0.4625,0.8375,0.1099,-0.2423,1.1314,
8.753760,0.3018,0.7402,1.0725,-2.1953,0.4625,0.8375,0.1099,-0.2423,1.1314,
8.776996,0.3018,0.7402,1.0725,-2.1953,0.4625,0.8375,0.9217,0.0648,1.7943,
8.778528,0.3119,0.8253,1.0199,-2.1953,0.4625,0.8375,0.9217,0.0648,1.7943,
8.788333,0.3315,0.9343,1.1414,-2.1953,0.4625,0.8375,0.9217,0.0648,1.7943,
8.797861,0.4754,1.0646,1.3521,-2.1953,0.4625,0.8375,0.9217,0.0648,1.7943,
8.799071,0.4754,1.0646,1.3521,-2.9111,2.5188,3.2245,0.9217,0.0648,1.7943,
8.837334,0.4754,1.0646,1.3521,-2.9111,2.5188,3.2245,2.1459,0.4093,2.2819,
8.838797,0.6658,1.1489,1.4196,-2.9111,2.5188,3.2245,2.1459,0.4093,2.2819,
8.853886,0.8183,1.2521,1.3277,-2.9111,2.5188,3.2245,2.1459,0.4093,2.2819,
8.865286,0.9291,1.3129,1.3416,-2.9111,2.5188,3.2245,2.1459,0.4093,2.2819,
8.867317,0.9291,1.3129,1.3416,-2.7008,5.0422,4.6781,2.1459,0.4093,2.2819,
8.897463,1.0244,1.3038,1.3350,-2.7008,5.0422,4.6781,2.1459,0.4093,2.2819,
8.898852,1.0244,1.3038,1.3350,-2.7008,5.0422,4.6781,3.6961,0.8264,1.7005,
8.921779,1.1650,1.3066,1.2399,-2.7008,5.0422,4.6781,3.6961,0.8264,1.7005,
8.923755,1.2485,1.2376,1.2947,-2.7008,5.0422,4.6781,3.6961,0.8264,1.7005,
8.937768,1.2926,1.1462,1.3184,-2.7008,5.0422,4.6781,3.6961,0.8264,1.7005,
8.939504,1.2926,1.1462,1.3184,1.7534,7.3691,7.2596,3.6961,0.8264,1.7005,
8.977793,1.4212,1.0616,1.2446,1.7534,7.3691,7.2596,3.6961,0.8264,1.7005,
8.979116,1.4212,1.0616,1.2446,1.7534,7.3691,7.2596,4.6591,0.4347,0.5739,
8.988464,1.5143,0.9893,0.9935,1.7534,7.3691,7.2596,4.6591,0.4347,0.5739,
9.007821,1.5074,0.9590,0.8065,1.7534,7.3691,7.2596,4.6591,0.4347,0.5739,
9.009033,1.5074,0.9590,0.8065,5.3582,5.9164,7.7288,4.6591,0.4347,0.5739,
9.038268,1.5597,0.9208,0.9051,5.3582,5.9164,7.7288,4.6591,0.4347,0.5739,
9.040806,1.5597,0.9208,0.9051,5.3582,5.9164,7.7288,4.8320,-0.3751,-0.3869,
9.041820,1.5291,0.8079,1.0674,5.3582,5.9164,7.7288,4.8320,-0.3751,-0.3869,
9.078854,1.5291,0.8079,1.0674,8.0033,2.2211,6.9081,4.8320,-0.3751,-0.3869,
9.080575,1.4534,0.6791,1.0395,8.0033,2.2211,6.9081,4.8320,-0.3751,-0.3869,
9.081218,1.3750,0.5958,0.9424,8.0033,2.2211,6.9081,4.8320,-0.3751,-0.3869,
9.098055,1.3750,0.5958,0.9424,8.0033,2.2211,6.9081,4.1798,-1.2494,-1.5206,
9.121871,1.2933,0.5302,0.8261,8.0033,2.2211,6.9081,4.1798,-1.2494,-1.5206,
9.123291,1.2122,0.4889,0.7413,8.0033,2.2211,6.9081,4.1798,-1.2494,-1.5206,
9.148451,1.2689,0.4567,0.7330,8.0033,2.2211,6.9081,4.1798,-1.2494,-1.5206,
9.150212,1.2689,0.4567,0.7330,8.2058,-1.3312,9.2947,4.1798,-1.2494,-1.5206,
9.150984,1.2689,0.4567,0.7330,9.0674,-1.7297,11.7891,4.1798,-1.2494,-1.5206,
9.178460,1.2689,0.4567,0.7330,9.0674,-1.7297,11.7891,3.7016,-2.0876,-1.7812,
9.180198,1.1933,0.4107,0.5795,9.0674,-1.7297,11.7891,3.7016,-2.0876,-1.7812,
9.188690,1.0926,0.3396,0.4001,9.0674,-1.7297,11.7891,3.7016,-2.0876,-1.7812,
9.218625,1.0926,0.3396,0.4001,8.2552,-3.9168,11.4800,3.7016,-2.0876,-1.7812,
9.220114,1.0066,0.2513,0.3157,8.2552,-3.9168,11.4800,3.7016,-2.0876,-1.7812,
9.220704,0.9029,0.1528,0.2199,8.2552,-3.9168,11.4800,3.7016,-2.0876,-1.7812,
9.238570,0.9029,0.1528,0.2199,8.2552,-3.9168,11.4800,3.1576,-2.5361,-1.8202,
9.253890,0.8183,0.0858,0.0290,8.2552,-3.9168,11.4800,3.1576,-2.5361,-1.8202,
9.288899,0.8183,0.0858,0.0290,7.6655,-5.3107,9.4155,3.1576,-2.5361,-1.8202,
9.290694,0.7482,0.0306,-0.1409,7.6655,-5.3107,9.4155,3.1576,-2.5361,-1.8202,
9.291327,0.6570,0.0025,-0.1113,7.6655,-5.3107,9.4155,3.1576,-2.5361,-1.8202,
9.298739,0.6570,0.0025,-0.1113,7.6655,-5.3107,9.4155,2.2544,-3.4303,-1.5658,
9.321884,0.4761,-0.0085,0.0163,7.6655,-5.3107,9.4155,2.2544,-3.4303,-1.5658,
9.323691,0.3578,-0.0190,0.1314,7.6655,-5.3107,9.4155,2.2544,-3.4303,-1.5658,
9.353825,0.2495,-0.0347,0.0690,7.6655,-5.3107,9.4155,2.2544,-3.4303,-1.5658,
9.359407,0.1814,-0.0415,-0.1257,7.6655,-5.3107,9.4155,2.2544,-3.4303,-1.5658,
9.360259,0.1814,-0.0415,-0.1257,6.5852,-6.9523,6.3577,2.2544,-3.4303,-1.5658,
9.379130,0.1814,-0.0415,-0.1257,6.5852,-6.9523,6.3577,1.8701,-3.7941,-0.9722,
9.388863,0.0836,-0.0129,-0.2484,6.5852,-6.9523,6.3577,1.8701,-3.7941,-0.9722,
9.429187,0.0836,-0.0129,-0.2484,4.3647,-6.4720,7.8927,1.8701,-3.7941,-0.9722,
9.430860,0.0032,0.0040,-0.3066,4.3647,-6.4720,7.8927,1.8701,-3.7941,-0.9722,
9.431450,-0.0504,0.0096,-0.2998,4.3647,-6.4720,7.8927,1.8701,-3.7941,-0.9722,
9.439487,-0.0504,0.0096,-0.2998,4.3647,-6.4720,7.8927,2.0528,-3.5241,0.1232,
9.453851,-0.1223,0.0211,-0.2981,4.3647,-6.4720,7.8927,2.0528,-3.5241,0.1232,
9.499664,-0.1223,0.0211,-0.2981,4.3647,-6.4720,7.8927,1.8805,-3.8185,1.1233,
9.501219,-0.1756,0.0389,-0.3216,4.3647,-6.4720,7.8927,1.8805,-3.8185,1.1233,
9.502153,-0.1046,0.0411,-0.3606,4.3647,-6.4720,7.8927,1.8805,-3.8185,1.1233,
9.502691,-0.1046,0.0411,-0.3606,2.9712,-5.2225,4.9161,1.8805,-3.8185,1.1233,
9.503290,-0.0910,0.0617,-0.3746,2.9712,-5.2225,4.9161,1.8805,-3.8185,1.1233,
9.521848,-0.1220,0.0734,-0.2754,2.9712,-5.2225,4.9161,1.8805,-3.8185,1.1233,
9.554087,-0.1834,0.0629,-0.2045,2.9712,-5.2225,4.9161,1.8805,-3.8185,1.1233,
9.569620,-0.2802,0.0443,-0.2103,2.9712,-5.2225,4.9161,1.8805,-3.8185,1.1233,
9.571406,-0.2802,0.0443,-0.2103,3.1271,-4.1455,3.9516,1.8805,-3.8185,1.1233,
9.572038,-0.2802,0.0443,-0.2103,4.1364,-4.0080,3.1828,1.8805,-3.8185,1.1233,
9.579671,-0.2802,0.0443,-0.2103,4.1364,-4.0080,3.1828,1.2273,-3.5237,1.5118,
9.581095,-0.2848,0.0130,-0.2240,4.1364,-4.0080,3.1828,1.2273,-3.5237,1.5118,
9.640575,-0.2848,0.0130,-0.2240,4.1364,-4.0080,3.1828,0.7925,-3.5053,2.0820,
9.642874,-0.3097,0.0123,-0.2541,4.1364,-4.0080,3.1828,0.7925,-3.5053,2.0820,
9.643509,-0.3141,0.0406,-0.1861,4.1364,-4.0080,3.1828,0.7925,-3.5053,2.0820,
9.644104,-0.3141,0.0406,-0.1861,3.9948,-4.2245,3.3002,0.7925,-3.5053,2.0820,
9.644674,-0.3335,0.0563,-0.0615,3.9948,-4.2245,3.3002,0.7925,-3.5053,2.0820,
9.700260,-0.3335,0.0563,-0.0615,3.9948,-4.2245,3.3002,0.1887,-3.4613,2.8380,
9.701716,-0.3393,0.0560,0.0033,3.9948,-4.2245,3.3002,0.1887,-3.4613,2.8380,
9.702393,-0.2274,0.0543,0.0789,3.9948,-4.2245,3.3002,0.1887,-3.4613,2.8380,
9.710209,-0.2127,0.0895,0.1698,3.9948,-4.2245,3.3002,0.1887,-3.4613,2.8380,
9.711516,-0.2127,0.0895,0.1698,3.1193,-5.2507,2.5609,0.1887,-3.4613,2.8380,
9.721673,-0.2621,0.1525,0.3350,3.1193,-5.2507,2.5609,0.1887,-3.4613,2.8380,
9.749162,-0.2244,0.2078,0.3863,3.1193,-5.2507,2.5609,0.1887,-3.4613,2.8380,
9.764108,-0.1215,0.2887,0.3810,3.1193,-5.2507,2.5609,0.1887,-3.4613,2.8380,
9.770484,-0.0726,0.3342,0.4744,3.1193,-5.2507,2.5609,0.1887,-3.4613,2.8380,
9.773705,-0.0678,0.3420,0.4929,3.1193,-5.2507,2.5609,0.1887,-3.4613,2.8380,
9.775145,-0.0545,0.3430,0.5027,3.1193,-5.2507,2.5609,0.1887,-3.4613,2.8380,
9.778133,-0.0472,0.3445,0.5076,3.1193,-5.2507,2.5609,0.1887,-3.4613,2.8380,
9.780515,-0.0472,0.3445,0.5076,3.1193,-5.2507,2.5609,-0.6402,-2.8620,3.3957,
9.782257,-0.0535,0.3523,0.5179,3.1193,-5.2507,2.5609,-0.6402,-2.8620,3.3957,
9.783251,-0.0668,0.3640,0.5232,3.1193,-5.2507,2.5609,-0.6402,-2.8620,3.3957,
9.786719,-0.1034,0.3767,0.5267,3.1193,-5.2507,2.5609,-0.6402,-2.8620,3.3957,
9.787966,-0.1420,0.3870,0.5301,3.1193,-5.2507,2.5609,-0.6402,-2.8620,3.3957,
9.790575,-0.1861,0.4002,0.5462,3.1193,-5.2507,2.5609,-0.6402,-2.8620,3.3957,
9.792777,-0.2325,0.4124,0.5594,3.1193,-5.2507,2.5609,-0.6402,-2.8620,3.3957,
9.795327,-0.2652,0.4197,0.5770,3.1193,-5.2507,2.5609,-0.6402,-2.8620,3.3957,
9.798654,-0.2873,0.4251,0.6000,3.1193,-5.2507,2.5609,-0.6402,-2.8620,3.3957,
9.800798,-0.2912,0.4300,0.6303,3.1193,-5.2507,2.5609,-0.6402,-2.8620,3.3957,
9.803454,-0.2887,0.4378,0.6625,3.1193,-5.2507,2.5609,-0.6402,-2.8620,3.3957,
9.806372,-0.2814,0.4476,0.6943,3.1193,-5.2507,2.5609,-0.6402,-2.8620,3.3957,
9.809475,-0.2603,0.4569,0.7286,3.1193,-5.2507,2.5609,-0.6402,-2.8620,3.3957,
9.810395,-0.2349,0.4628,0.7686,3.1193,-5.2507,2.5609,-0.6402,-2.8620,3.3957,
9.813273,-0.2031,0.4701,0.8068,3.1193,-5.2507,2.5609,-0.6402,-2.8620,3.3957,
9.816381,-0.1621,0.4784,0.8381,3.1193,-5.2507,2.5609,-0.6402,-2.8620,3.3957,
9.817780,-0.1284,0.4872,0.8645,3.1193,-5.2507,2.5609,-0.6402,-2.8620,3.3957,
9.820961,-0.0961,0.4936,0.8914,3.1193,-5.2507,2.5609,-0.6402,-2.8620,3.3957,
9.823237,-0.0570,0.5033,0.9207,3.1193,-5.2507,2.5609,-0.6402,-2.8620,3.3957,
9.825490,-0.0237,0.5165,0.9397,3.1193,-5.2507,2.5609,-0.6402,-2.8620,3.3957,
9.827872,0.0066,0.5297,0.9549,3.1193,-5.2507,2.5609,-0.6402,-2.8620,3.3957,
9.831301,0.0359,0.5444,0.9588,3.1193,-5.2507,2.5609,-0.6402,-2.8620,3.3957,
9.832870,0.0432,0.5576,0.9559,3.1193,-5.2507,2.5609,-0.6402,-2.8620,3.3957,
9.833479,0.0432,0.5576,0.9559,3.0656,-5.9778,4.0783,-0.6402,-2.8620,3.3957,
9.834369,0.0432,0.5576,0.9559,1.8378,-7.0858,2.7114,-0.6402,-2.8620,3.3957,
9.835219,0.0442,0.5762,0.9496,1.8378,-7.0858,2.7114,-0.6402,-2.8620,3.3957,
9.838001,0.0544,0.5889,0.9417,1.8378,-7.0858,2.7114,-0.6402,-2.8620,3.3957,
9.840897,0.0525,0.5992,0.9285,1.8378,-7.0858,2.7114,-0.6402,-2.8620,3.3957,
9.841590,0.0525,0.5992,0.9285,1.8378,-7.0858,2.7114,-1.5068,-2.4928,3.6082,
9.843714,0.0540,0.6031,0.9173,1.8378,-7.0858,2.7114,-1.5068,-2.4928,3.6082,
9.845555,0.0653,0.6041,0.9095,1.8378,-7.0858,2.7114,-1.5068,-2.4928,3.6082,
9.848357,0.0775,0.6065,0.9041,1.8378,-7.0858,2.7114,-1.5068,-2.4928,3.6082,
9.850718,0.1009,0.5967,0.9007,1.8378,-7.0858,2.7114,-1.5068,-2.4928,3.6082,
9.853452,0.1132,0.5948,0.8929,1.8378,-7.0858,2.7114,-1.5068,-2.4928,3.6082,
9.855711,0.1137,0.5987,0.8781,1.8378,-7.0858,2.7114,-1.5068,-2.4928,3.6082,
9.858225,0.1009,0.6089,0.8591,1.8378,-7.0858,2.7114,-1.5068,-2.4928,3.6082,
9.860735,0.0799,0.6143,0.8503,1.8378,-7.0858,2.7114,-1.5068,-2.4928,3.6082,
9.863712,0.0565,0.6290,0.8332,1.8378,-7.0858,2.7114,-1.5068,-2.4928,3.6082,
9.865156,0.0325,0.6426,0.8180,1.8378,-7.0858,2.7114,-1.5068,-2.4928,3.6082,
9.868252,0.0110,0.6510,0.8136,1.8378,-7.0858,2.7114,-1.5068,-2.4928,3.6082,
9.870613,0.0037,0.6588,0.8112,1.8378,-7.0858,2.7114,-1.5068,-2.4928,3.6082,
9.873688,-0.0003,0.6691,0.8161,1.8378,-7.0858,2.7114,-1.5068,-2.4928,3.6082,
9.875569,-0.0032,0.6730,0.8312,1.8378,-7.0858,2.7114,-1.5068,-2.4928,3.6082,
9.878065,-0.0076,0.6852,0.8537,1.8378,-7.0858,2.7114,-1.5068,-2.4928,3.6082,
9.880466,-0.0135,0.6901,0.8772,1.8378,-7.0858,2.7114,-1.5068,-2.4928,3.6082,
9.882741,-0.0198,0.7072,0.9002,1.8378,-7.0858,2.7114,-1.5068,-2.4928,3.6082,
9.886223,-0.0223,0.7155,0.9324,1.8378,-7.0858,2.7114,-1.5068,-2.4928,3.6082,
9.889688,-0.0042,0.7233,0.9803,1.8378,-7.0858,2.7114,-1.5068,-2.4928,3.6082,
9.909209,-0.0042,0.7233,0.9803,1.8378,-7.0858,2.7114,-2.0150,-1.7552,3.9093,
9.954363,0.1833,0.7397,1.2864,1.8378,-7.0858,2.7114,-2.0150,-1.7552,3.9093,
9.971080,0.4172,0.9020,1.2852,1.8378,-7.0858,2.7114,-2.0150,-1.7552,3.9093,
9.972312,0.4172,0.9020,1.2852,1.2465,-4.4463,6.7678,-2.0150,-1.7552,3.9093,
9.972941,0.4172,0.9020,1.2852,-0.9189,-4.6378,5.2667,-2.0150,-1.7552,3.9093,
9.981396,0.4172,0.9020,1.2852,-0.9189,-4.6378,5.2667,-2.2401,-1.0784,4.4725,
10.024088,0.5988,0.9673,1.4602,-0.9189,-4.6378,5.2667,-2.2401,-1.0784,4.4725,
10.025550,0.7020,1.0609,1.5873,-0.9189,-4.6378,5.2667,-2.2401,-1.0784,4.4725,
10.026270,0.7680,1.1103,1.4201,-0.9189,-4.6378,5.2667,-2.2401,-1.0784,4.4725,
10.041505,0.7680,1.1103,1.4201,-0.9189,-4.6378,5.2667,-1.6020,0.1250,4.7005,
10.044282,0.8679,1.0895,1.3397,-0.9189,-4.6378,5.2667,-1.6020,0.1250,4.7005,
10.045225,0.8679,1.0895,1.3397,0.7509,-0.4126,10.0456,-1.6020,0.1250,4.7005,
10.091207,0.9220,1.0259,1.4159,0.7509,-0.4126,10.0456,-1.6020,0.1250,4.7005,
10.093105,1.0481,1.0076,1.5254,0.7509,-0.4126,10.0456,-1.6020,0.1250,4.7005,
10.102423,1.0481,1.0076,1.5254,0.7509,-0.4126,10.0456,-0.8001,1.3652,4.4121,
10.111258,1.1865,1.0083,1.3311,0.7509,-0.4126,10.0456,-0.8001,1.3652,4.4121,
10.112024,1.1865,1.0083,1.3311,3.1235,3.2504,10.7884,-0.8001,1.3652,4.4121,
10.112489,1.1865,1.0083,1.3311,1.7224,4.6656,9.8776,-0.8001,1.3652,4.4121,
10.153342,1.1489,0.9489,1.0693,1.7224,4.6656,9.8776,-0.8001,1.3652,4.4121,
10.153847,1.1606,0.8639,1.2094,1.7224,4.6656,9.8776,-0.8001,1.3652,4.4121,
10.182211,1.1962,0.7563,1.3487,1.7224,4.6656,9.8776,-0.8001,1.3652,4.4121,
10.183570,1.1962,0.7563,1.3487,1.7224,4.6656,9.8776,0.1731,2.2036,3.8344,
10.184469,1.2065,0.6251,1.2541,1.7224,4.6656,9.8776,0.1731,2.2036,3.8344,
10.185311,1.2065,0.6251,1.2541,4.1418,5.2614,8.1613,0.1731,2.2036,3.8344,
10.224207,1.2095,0.5405,1.0781,4.1418,5.2614,8.1613,0.1731,2.2036,3.8344,
10.226131,1.0586,0.4972,0.9825,4.1418,5.2614,8.1613,0.1731,2.2036,3.8344,
10.242213,1.0586,0.4972,0.9825,4.1418,5.2614,8.1613,0.9841,2.5217,3.2740,
10.253628,1.0095,0.4479,1.2355,4.1418,5.2614,8.1613,0.9841,2.5217,3.2740,
10.255277,1.0095,0.4479,1.2355,5.1787,3.8424,6.0196,0.9841,2.5217,3.2740,
10.291011,1.1171,0.4139,1.4113,5.1787,3.8424,6.0196,0.9841,2.5217,3.2740,
10.292545,1.2840,0.3970,1.1710,5.1787,3.8424,6.0196,0.9841,2.5217,3.2740,
10.302701,1.2840,0.3970,1.1710,5.1787,3.8424,6.0196,1.8359,2.6158,3.0866,
10.322572,1.2840,0.3970,1.1710,4.6598,1.5631,4.2893,1.8359,2.6158,3.0866,
10.323981,1.4006,0.3554,0.7136,4.6598,1.5631,4.2893,1.8359,2.6158,3.0866,
10.324591,1.3862,0.3286,0.4534,4.6598,1.5631,4.2893,1.8359,2.6158,3.0866,
10.354110,1.2429,0.2819,0.5411,4.6598,1.5631,4.2893,1.8359,2.6158,3.0866,
10.364523,1.1224,0.1978,0.8112,4.6598,1.5631,4.2893,1.8359,2.6158,3.0866,
10.382990,1.1224,0.1978,0.8112,4.6598,1.5631,4.2893,2.1560,2.3161,2.1480,
10.392582,1.1090,0.1469,0.8576,4.6598,1.5631,4.2893,2.1560,2.3161,2.1480,
10.394007,1.1090,0.1469,0.8576,7.3347,0.1811,1.2735,2.1560,2.3161,2.1480,
10.424141,1.1173,0.1210,0.5822,7.3347,0.1811,1.2735,2.1560,2.3161,2.1480,
10.425664,1.1373,0.1237,0.3379,7.3347,0.1811,1.2735,2.1560,2.3161,2.1480,
10.443036,1.1373,0.1237,0.3379,7.3347,0.1811,1.2735,2.3183,1.5785,1.9145,
10.454099,1.0850,0.1607,0.2719,7.3347,0.1811,1.2735,2.3183,1.5785,1.9145,
10.465006,1.0066,0.1973,0.3800,7.3347,0.1811,1.2735,2.3183,1.5785,1.9145,
10.466271,1.0066,0.1973,0.3800,6.0375,-1.7025,-0.3819,2.3183,1.5785,1.9145,
10.491452,0.9430,0.2252,0.4364,6.0375,-1.7025,-0.3819,2.3183,1.5785,1.9145,
10.503298,0.9430,0.2252,0.4364,6.0375,-1.7025,-0.3819,1.3473,0.7905,1.0660,
10.533239,0.9430,0.2252,0.4364,5.3502,-2.5288,-3.7869,1.3473,0.7905,1.0660,
10.535011,0.8670,0.2486,0.4018,5.3502,-2.5288,-3.7869,1.3473,0.7905,1.0660,
10.535616,0.8064,0.2640,0.4389,5.3502,-2.5288,-3.7869,1.3473,0.7905,1.0660,
10.536191,0.8064,0.2640,0.4389,5.3094,-2.6485,-3.6665,1.3473,0.7905,1.0660,
10.553783,0.7289,0.2934,0.5061,5.3094,-2.6485,-3.6665,1.3473,0.7905,1.0660,
10.565631,0.7289,0.2934,0.5061,5.3094,-2.6485,-3.6665,0.3667,0.1502,0.2722,
10.603697,0.7289,0.2934,0.5061,3.0170,-1.6754,-2.8157,0.3667,0.1502,0.2722,
10.605513,0.6497,0.3056,0.6193,3.0170,-1.6754,-2.8157,0.3667,0.1502,0.2722,
10.606245,0.6165,0.3180,0.7718,3.0170,-1.6754,-2.8157,0.3667,0.1502,0.2722,
10.606834,0.5949,0.3381,0.7413,3.0170,-1.6754,-2.8157,0.3667,0.1502,0.2722,
10.624254,0.5800,0.3667,0.6406,3.0170,-1.6754,-2.8157,0.3667,0.1502,0.2722,
10.643729,0.5800,0.3667,0.6406,3.0170,-1.6754,-2.8157,0.0648,-0.1081,0.0005,
10.654513,0.5397,0.3841,0.6865,3.0170,-1.6754,-2.8157,0.0648,-0.1081,0.0005,
10.673630,0.5397,0.3841,0.6865,0.7763,-1.0549,-0.3060,0.0648,-0.1081,0.0005,
10.674957,0.4891,0.3899,0.7934,0.7763,-1.0549,-0.3060,0.0648,-0.1081,0.0005,
10.691343,0.4588,0.4043,0.8388,0.7763,-1.0549,-0.3060,0.0648,-0.1081,0.0005,
10.704061,0.4588,0.4043,0.8388,0.7763,-1.0549,-0.3060,-0.1885,-0.0675,-0.1792,
10.744323,0.4588,0.4043,0.8388,-0.2563,-0.3831,0.0729,-0.1885,-0.0675,-0.1792,
10.746235,0.4813,0.4136,0.8058,-0.2563,-0.3831,0.0729,-0.1885,-0.0675,-0.1792,
10.746708,0.4861,0.4234,0.7457,-0.2563,-0.3831,0.0729,-0.1885,-0.0675,-0.1792,
10.747275,0.4720,0.4337,0.7564,-0.2563,-0.3831,0.0729,-0.1885,-0.0675,-0.1792,
10.763833,0.4720,0.4337,0.7564,-0.2563,-0.3831,0.0729,-0.0735,-0.1111,-0.1320,
10.814090,0.4720,0.4337,0.7564,-0.7286,-0.0186,0.6069,-0.0735,-0.1111,-0.1320,
10.815551,0.4603,0.4352,0.8156,-0.7286,-0.0186,0.6069,-0.0735,-0.1111,-0.1320,
10.816075,0.4556,0.4378,0.8280,-0.7286,-0.0186,0.6069,-0.0735,-0.1111,-0.1320,
10.816684,0.4646,0.4527,0.7804,-0.7286,-0.0186,0.6069,-0.0735,-0.1111,-0.1320,
10.824378,0.4605,0.4581,0.7459,-0.7286,-0.0186,0.6069,-0.0735,-0.1111,-0.1320,
10.844128,0.4605,0.4581,0.7459,-0.7286,-0.0186,0.6069,-0.0624,-0.0142,-0.1096,
10.853614,0.4751,0.4632,0.8026,-0.7286,-0.0186,0.6069,-0.0624,-0.0142,-0.1096,
10.865608,0.4766,0.4693,0.7953,-0.7286,-0.0186,0.6069,-0.0624,-0.0142,-0.1096,
10.884530,0.4869,0.4706,0.7564,-0.7286,-0.0186,0.6069,-0.0624,-0.0142,-0.1096,
10.885705,0.4869,0.4706,0.7564,-0.8562,0.1853,0.7718,-0.0624,-0.0142,-0.1096,
10.904600,0.4869,0.4706,0.7564,-0.8562,0.1853,0.7718,-0.0164,0.0617,-0.0686,
10.954257,0.4977,0.4659,0.7645,-0.8562,0.1853,0.7718,-0.0164,0.0617,-0.0686,
10.955864,0.4822,0.4606,0.7716,-0.8562,0.1853,0.7718,-0.0164,0.0617,-0.0686,
10.956347,0.4910,0.4608,0.7620,-0.8562,0.1853,0.7718,-0.0164,0.0617,-0.0686,
10.957206,0.4910,0.4608,0.7620,-0.6431,0.3952,0.5555,-0.0164,0.0617,-0.0686,
10.957822,0.4910,0.4608,0.7620,-0.5776,0.3679,0.5177,-0.0164,0.0617,-0.0686,
10.964705,0.4910,0.4608,0.7620,-0.5776,0.3679,0.5177,0.0198,0.0984,-0.0389,
11.025699,0.4910,0.4608,0.7620,-0.4067,0.3037,0.3341,0.0198,0.0984,-0.0389,
11.026561,0.4915,0.4581,0.7418,-0.4067,0.3037,0.3341,0.0198,0.0984,-0.0389,
11.026853,0.4947,0.4567,0.7452,-0.4067,0.3037,0.3341,0.0198,0.0984,-0.0389,
11.027164,0.4960,0.4542,0.7584,-0.4067,0.3037,0.3341,0.0198,0.0984,-0.0389,
11.027431,0.4876,0.4520,0.7530,-0.4067,0.3037,0.3341,0.0198,0.0984,-0.0389,
11.045449,0.4876,0.4520,0.7530,-0.4067,0.3037,0.3341,0.0051,0.0306,-0.0089,
11.056182,0.4947,0.4474,0.7681,-0.4067,0.3037,0.3341,0.0051,0.0306,-0.0089,
11.091281,0.4834,0.4486,0.7691,-0.4067,0.3037,0.3341,0.0051,0.0306,-0.0089,
11.092512,0.4844,0.4483,0.7613,-0.4067,0.3037,0.3341,0.0051,0.0306,-0.0089,
11.094850,0.4844,0.4483,0.7613,-0.3661,0.2299,0.1898,0.0051,0.0306,-0.0089,
11.105853,0.4844,0.4483,0.7613,-0.3661,0.2299,0.1898,0.0124,0.0505,0.0077,
11.153996,0.4921,0.4505,0.7635,-0.3661,0.2299,0.1898,0.0124,0.0505,0.0077,
11.155255,0.4830,0.4532,0.7625,-0.3661,0.2299,0.1898,0.0124,0.0505,0.0077,
11.155665,0.4910,0.4535,0.7691,-0.3661,0.2299,0.1898,0.0124,0.0505,0.0077,
11.165394,0.4910,0.4535,0.7691,-0.3661,0.2299,0.1898,0.0261,0.0374,0.0188,
11.166880,0.4896,0.4625,0.7628,-0.3661,0.2299,0.1898,0.0261,0.0374,0.0188,
11.167442,0.4896,0.4625,0.7628,-0.3933,0.1529,0.3360,0.0261,0.0374,0.0188,
11.224005,0.4764,0.4615,0.7677,-0.3933,0.1529,0.3360,0.0261,0.0374,0.0188,
11.225191,0.4903,0.4623,0.7880,-0.3933,0.1529,0.3360,0.0261,0.0374,0.0188,
11.236161,0.4960,0.4632,0.7623,-0.3933,0.1529,0.3360,0.0261,0.0374,0.0188,
11.236931,0.4960,0.4632,0.7623,-0.3281,0.2013,0.2801,0.0261,0.0374,0.0188,
11.246150,0.4960,0.4632,0.7623,-0.3281,0.2013,0.2801,0.0387,0.0595,0.0511,
11.254565,0.4950,0.4628,0.7410,-0.3281,0.2013,0.2801,0.0387,0.0595,0.0511,
11.291028,0.4945,0.4610,0.7420,-0.3281,0.2013,0.2801,0.0387,0.0595,0.0511,
11.292421,0.5052,0.4562,0.7408,-0.3281,0.2013,0.2801,0.0387,0.0595,0.0511,
11.306317,0.5052,0.4562,0.7408,-0.3281,0.2013,0.2801,0.0628,0.0229,0.0602,
11.308369,0.5052,0.4562,0.7408,-0.2813,0.2325,0.2813,0.0628,0.0229,0.0602,
11.308993,0.5133,0.4596,0.7342,-0.2813,0.2325,0.2813,0.0628,0.0229,0.0602,
11.354024,0.5028,0.4579,0.7244,-0.2813,0.2325,0.2813,0.0628,0.0229,0.0602,
11.355429,0.4940,0.4603,0.7542,-0.2813,0.2325,0.2813,0.0628,0.0229,0.0602,
11.366007,0.4940,0.4603,0.7542,-0.2813,0.2325,0.2813,-0.0028,0.0003,0.0072,
11.380151,0.4943,0.4603,0.7794,-0.2813,0.2325,0.2813,-0.0028,0.0003,0.0072,
11.381700,0.4943,0.4603,0.7794,-0.1424,0.1714,0.0000,-0.0028,0.0003,0.0072,
11.382387,0.4943,0.4603,0.7794,-0.1254,0.1575,-0.0039,-0.0028,0.0003,0.0072,
11.424613,0.4825,0.4576,0.7740,-0.1254,0.1575,-0.0039,-0.0028,0.0003,0.0072,
11.426415,0.4827,0.4454,0.7601,-0.1254,0.1575,-0.0039,-0.0028,0.0003,0.0072,
11.446294,0.4622,0.4364,0.7750,-0.1254,0.1575,-0.0039,-0.0028,0.0003,0.0072,
11.447423,0.4622,0.4364,0.7750,-0.1254,0.1575,-0.0039,0.0204,-0.0025,0.0047,
11.448076,0.4534,0.4330,0.7833,-0.1254,0.1575,-0.0039,0.0204,-0.0025,0.0047,
11.448641,0.4534,0.4330,0.7833,-0.1819,0.1344,0.1554,0.0204,-0.0025,0.0047,
11.490932,0.4581,0.4427,0.7723,-0.1819,0.1344,0.1554,0.0204,-0.0025,0.0047,
11.492821,0.4747,0.4574,0.7388,-0.1819,0.1344,0.1554,0.0204,-0.0025,0.0047,
11.506882,0.4747,0.4574,0.7388,-0.1819,0.1344,0.1554,0.0834,-0.0051,0.1080,
11.516758,0.4964,0.4662,0.7212,-0.1819,0.1344,0.1554,0.0834,-0.0051,0.1080,
11.517754,0.4964,0.4662,0.7212,-0.4082,-0.0479,0.2949,0.0834,-0.0051,0.1080,
11.553831,0.5111,0.4691,0.7569,-0.4082,-0.0479,0.2949,0.0834,-0.0051,0.1080,
11.555409,0.5162,0.4789,0.7725,-0.4082,-0.0479,0.2949,0.0834,-0.0051,0.1080,
11.567672,0.5162,0.4789,0.7725,-0.4082,-0.0479,0.2949,0.0406,-0.0224,0.1013,
11.586950,0.5162,0.4789,0.7725,-0.2940,0.1171,0.0363,0.0406,-0.0224,0.1013,
11.588485,0.5196,0.4838,0.7464,-0.2940,0.1171,0.0363,0.0406,-0.0224,0.1013,
11.589041,0.5348,0.4786,0.7320,-0.2940,0.1171,0.0363,0.0406,-0.0224,0.1013,
11.623918,0.5174,0.4747,0.7403,-0.2940,0.1171,0.0363,0.0406,-0.0224,0.1013,
11.646959,0.5174,0.4747,0.7403,-0.2940,0.1171,0.0363,-0.0161,0.0216,-0.0441,
11.648329,0.5033,0.4689,0.7528,-0.2940,0.1171,0.0363,-0.0161,0.0216,-0.0441,
11.654673,0.4943,0.4628,0.7572,-0.2940,0.1171,0.0363,-0.0161,0.0216,-0.0441,
11.657315,0.4943,0.4628,0.7572,0.0926,0.2846,0.1113,-0.0161,0.0216,-0.0441,
11.690889,0.4896,0.4584,0.7603,0.0926,0.2846,0.1113,-0.0161,0.0216,-0.0441,
11.692092,0.4925,0.4596,0.7611,0.0926,0.2846,0.1113,-0.0161,0.0216,-0.0441,
11.707173,0.4925,0.4596,0.7611,0.0926,0.2846,0.1113,-0.0228,-0.0107,-0.0591,
11.727496,0.4856,0.4645,0.7513,0.0926,0.2846,0.1113,-0.0228,-0.0107,-0.0591,
11.728770,0.4967,0.4635,0.7664,0.0926,0.2846,0.1113,-0.0228,-0.0107,-0.0591,
11.729389,0.4967,0.4635,0.7664,-0.0614,0.1459,0.0745,-0.0228,-0.0107,-0.0591,
11.750410,0.5079,0.4735,0.7652,-0.0614,0.1459,0.0745,-0.0228,-0.0107,-0.0591,
11.764973,0.5062,0.4750,0.7462,-0.0614,0.1459,0.0745,-0.0228,-0.0107,-0.0591,
11.768101,0.4999,0.4715,0.7173,-0.0614,0.1459,0.0745,-0.0228,-0.0107,-0.0591,
11.768916,0.4999,0.4715,0.7173,-0.0614,0.1459,0.0745,0.0284,-0.0160,-0.0005,
11.769554,0.5038,0.4774,0.7246,-0.0614,0.1459,0.0745,0.0284,-0.0160,-0.0005,
11.772031,0.5033,0.4706,0.7222,-0.0614,0.1459,0.0745,0.0284,-0.0160,-0.0005,
11.775084,0.5048,0.4711,0.7212,-0.0614,0.1459,0.0745,0.0284,-0.0160,-0.0005,
11.777234,0.5052,0.4715,0.7222,-0.0614,0.1459,0.0745,0.0284,-0.0160,-0.0005,
11.779824,0.5067,0.4725,0.7257,-0.0614,0.1459,0.0745,0.0284,-0.0160,-0.0005,
11.782470,0.5087,0.4686,0.7296,-0.0614,0.1459,0.0745,0.0284,-0.0160,-0.0005,
11.786459,0.5087,0.4696,0.7315,-0.0614,0.1459,0.0745,0.0284,-0.0160,-0.0005,
11.787456,0.5096,0.4720,0.7345,-0.0614,0.1459,0.0745,0.0284,-0.0160,-0.0005,
11.789414,0.5077,0.4696,0.7369,-0.0614,0.1459,0.0745,0.0284,-0.0160,-0.0005,
11.792482,0.5091,0.4671,0.7413,-0.0614,0.1459,0.0745,0.0284,-0.0160,-0.0005,
11.794691,0.5087,0.4667,0.7486,-0.0614,0.1459,0.0745,0.0284,-0.0160,-0.0005,
11.797198,0.5111,0.4676,0.7554,-0.0614,0.1459,0.0745,0.0284,-0.0160,-0.0005,
11.799647,0.5072,0.4642,0.7569,-0.0614,0.1459,0.0745,0.0284,-0.0160,-0.0005,
11.802406,0.5038,0.4691,0.7569,-0.0614,0.1459,0.0745,0.0284,-0.0160,-0.0005,
11.804847,0.5023,0.4706,0.7623,-0.0614,0.1459,0.0745,0.0284,-0.0160,-0.0005,
11.809050,0.5028,0.4681,0.7618,-0.0614,0.1459,0.0745,0.0284,-0.0160,-0.0005,
11.809916,0.4940,0.4676,0.7598,-0.0614,0.1459,0.0745,0.0284,-0.0160,-0.0005,
11.812294,0.4896,0.4657,0.7603,-0.0614,0.1459,0.0745,0.0284,-0.0160,-0.0005,
11.814993,0.4886,0.4662,0.7598,-0.0614,0.1459,0.0745,0.0284,-0.0160,-0.0005,
11.817419,0.4881,0.4647,0.7618,-0.0614,0.1459,0.0745,0.0284,-0.0160,-0.0005,
11.820329,0.4861,0.4628,0.7618,-0.0614,0.1459,0.0745,0.0284,-0.0160,-0.0005,
11.822698,0.4842,0.4618,0.7618,-0.0614,0.1459,0.0745,0.0284,-0.0160,-0.0005,
11.825259,0.4852,0.4662,0.7637,-0.0614,0.1459,0.0745,0.0284,-0.0160,-0.0005,
11.827638,0.4871,0.4647,0.7667,-0.0614,0.1459,0.0745,0.0284,-0.0160,-0.0005,
11.830991,0.4861,0.4642,0.7657,-0.0614,0.1459,0.0745,0.0284,-0.0160,-0.0005,
11.832102,0.4861,0.4642,0.7657,-0.1563,0.0771,0.1438,0.0284,-0.0160,-0.0005,
11.832737,0.4861,0.4642,0.7657,-0.1473,0.0506,0.1445,0.0284,-0.0160,-0.0005,
11.833269,0.4837,0.4647,0.7667,-0.1473,0.0506,0.1445,0.0284,-0.0160,-0.0005,
11.835054,0.4832,0.4642,0.7681,-0.1473,0.0506,0.1445,0.0284,-0.0160,-0.0005,
11.837378,0.4827,0.4637,0.7691,-0.1473,0.0506,0.1445,0.0284,-0.0160,-0.0005,
11.840818,0.4832,0.4647,0.7681,-0.1473,0.0506,0.1445,0.0284,-0.0160,-0.0005,
11.843450,0.4852,0.4613,0.7691,-0.1473,0.0506,0.1445,0.0284,-0.0160,-0.0005,
11.844890,0.4852,0.4632,0.7677,-0.1473,0.0506,0.1445,0.0284,-0.0160,-0.0005,
11.848070,0.4852,0.4632,0.7677,-0.1473,0.0506,0.1445,-0.0016,-0.0240,-0.0342,
11.849200,0.4813,0.4564,0.7681,-0.1473,0.0506,0.1445,-0.0016,-0.0240,-0.0342,
11.850120,0.4778,0.4613,0.7662,-0.1473,0.0506,0.1445,-0.0016,-0.0240,-0.0342,
11.852828,0.4827,0.4652,0.7686,-0.1473,0.0506,0.1445,-0.0016,-0.0240,-0.0342,
11.854793,0.4866,0.4564,0.7706,-0.1473,0.0506,0.1445,-0.0016,-0.0240,-0.0342,
11.857706,0.4891,0.4579,0.7686,-0.1473,0.0506,0.1445,-0.0016,-0.0240,-0.0342,
11.859887,0.4921,0.4584,0.7681,-0.1473,0.0506,0.1445,-0.0016,-0.0240,-0.0342,
11.864211,0.4921,0.4608,0.7691,-0.1473,0.0506,0.1445,-0.0016,-0.0240,-0.0342,
11.865200,0.4886,0.4603,0.7652,-0.1473,0.0506,0.1445,-0.0016,-0.0240,-0.0342,
11.867874,0.4905,0.4598,0.7667,-0.1473,0.0506,0.1445,-0.0016,-0.0240,-0.0342,
11.869891,0.4866,0.4588,0.7701,-0.1473,0.0506,0.1445,-0.0016,-0.0240,-0.0342,
11.872403,0.4847,0.4618,0.7691,-0.1473,0.0506,0.1445,-0.0016,-0.0240,-0.0342,
11.875722,0.4822,0.4574,0.7657,-0.1473,0.0506,0.1445,-0.0016,-0.0240,-0.0342,
11.908958,0.4859,0.4606,0.7474,-0.1473,0.0506,0.1445,-0.0016,-0.0240,-0.0342,
11.910312,0.4859,0.4606,0.7474,-0.1473,0.0506,0.1445,0.0244,-0.0214,-0.0209,
11.953910,0.4881,0.4579,0.7513,-0.1473,0.0506,0.1445,0.0244,-0.0214,-0.0209,
11.958307,0.4881,0.4579,0.7513,-0.0512,0.0979,0.0119,0.0244,-0.0214,-0.0209,
11.959470,0.4881,0.4579,0.7513,-0.0509,0.0689,0.0255,0.0244,-0.0214,-0.0209,
11.968711,0.4881,0.4579,0.7513,-0.0509,0.0689,0.0255,0.0117,-0.0240,-0.0091,
12.010173,0.4940,0.4603,0.7681,-0.0509,0.0689,0.0255,0.0117,-0.0240,-0.0091,
12.011150,0.4874,0.4571,0.7569,-0.0509,0.0689,0.0255,0.0117,-0.0240,-0.0091,
12.012011,0.5018,0.4549,0.7550,-0.0509,0.0689,0.0255,0.0117,-0.0240,-0.0091,
12.028706,0.4979,0.4571,0.7423,-0.0509,0.0689,0.0255,0.0117,-0.0240,-0.0091,
12.030003,0.4979,0.4571,0.7423,-0.1668,-0.0205,0.0884,0.0117,-0.0240,-0.0091,
12.048265,0.4979,0.4571,0.7423,-0.1668,-0.0205,0.0884,0.0063,-0.0023,0.0029,
12.053555,0.4810,0.4496,0.7518,-0.1668,-0.0205,0.0884,0.0063,-0.0023,0.0029,
12.076881,0.4703,0.4542,0.7836,-0.1668,-0.0205,0.0884,0.0063,-0.0023,0.0029,
12.099143,0.4771,0.4652,0.7772,-0.1668,-0.0205,0.0884,0.0063,-0.0023,0.0029,
12.100328,0.4771,0.4652,0.7772,-0.0741,-0.0412,0.0869,0.0063,-0.0023,0.0029,
12.101228,0.4771,0.4652,0.7772,-0.0783,-0.0175,0.0739,0.0063,-0.0023,0.0029,
12.109183,0.4771,0.4652,0.7772,-0.0783,-0.0175,0.0739,-0.0154,-0.0268,0.0354,
12.143774,0.5006,0.4703,0.7337,-0.0783,-0.0175,0.0739,-0.0154,-0.0268,0.0354,
12.145095,0.5272,0.4784,0.7279,-0.0783,-0.0175,0.0739,-0.0154,-0.0268,0.0354,
12.153708,0.5218,0.4759,0.7388,-0.0783,-0.0175,0.0739,-0.0154,-0.0268,0.0354,
12.169914,0.5218,0.4759,0.7388,-0.0783,-0.0175,0.0739,0.0256,-0.0465,0.0704,
12.171660,0.5182,0.4720,0.7520,-0.0783,-0.0175,0.0739,0.0256,-0.0465,0.0704,
12.172257,0.5182,0.4720,0.7520,-0.2649,-0.0051,0.2055,0.0256,-0.0465,0.0704,
12.210261,0.5038,0.4691,0.7535,-0.2649,-0.0051,0.2055,0.0256,-0.0465,0.0704,
12.211490,0.4886,0.4596,0.7518,-0.2649,-0.0051,0.2055,0.0256,-0.0465,0.0704,
12.239156,0.4866,0.4564,0.7616,-0.2649,-0.0051,0.2055,0.0256,-0.0465,0.0704,
12.240476,0.4866,0.4564,0.7616,0.1281,0.1606,-0.0763,0.0256,-0.0465,0.0704,
12.249072,0.4866,0.4564,0.7616,0.1281,0.1606,-0.0763,-0.0345,-0.0083,0.0039,
12.253426,0.5006,0.4540,0.7601,0.1281,0.1606,-0.0763,-0.0345,-0.0083,0.0039,
12.276770,0.5082,0.4603,0.7447,0.1281,0.1606,-0.0763,-0.0345,-0.0083,0.0039,
12.309440,0.5087,0.4593,0.7462,0.1281,0.1606,-0.0763,-0.0345,-0.0083,0.0039,
12.310655,0.5087,0.4593,0.7462,-0.1396,0.0224,0.1092,-0.0345,-0.0083,0.0039,
12.311504,0.5087,0.4593,0.7462,-0.1396,0.0224,0.1092,0.0410,0.0024,0.0866,
12.312053,0.5018,0.4567,0.7440,-0.1396,0.0224,0.1092,0.0410,0.0024,0.0866,
12.343634,0.5087,0.4596,0.7371,-0.1396,0.0224,0.1092,0.0410,0.0024,0.0866,
12.354813,0.5148,0.4642,0.7330,-0.1396,0.0224,0.1092,0.0410,0.0024,0.0866,
12.369376,0.5148,0.4642,0.7330,-0.1396,0.0224,0.1092,0.0599,-0.0125,0.1152,
12.379896,0.5133,0.4615,0.7476,-0.1396,0.0224,0.1092,0.0599,-0.0125,0.1152,
12.381075,0.5133,0.4615,0.7476,-0.0344,0.0123,0.0082,0.0599,-0.0125,0.1152,
12.410364,0.5206,0.4559,0.7491,-0.0344,0.0123,0.0082,0.0599,-0.0125,0.1152,
12.411934,0.5043,0.4603,0.7327,-0.0344,0.0123,0.0082,0.0599,-0.0125,0.1152,
12.429718,0.5043,0.4603,0.7327,-0.0344,0.0123,0.0082,0.0225,-0.0188,0.0731,
12.450116,0.5043,0.4554,0.7440,-0.0344,0.0123,0.0082,0.0225,-0.0188,0.0731,
12.451179,0.5021,0.4481,0.7508,-0.0344,0.0123,0.0082,0.0225,-0.0188,0.0731,
12.451904,0.5021,0.4481,0.7508,-0.0009,0.0414,-0.0141,0.0225,-0.0188,0.0731,
12.477324,0.4903,0.4454,0.7525,-0.0009,0.0414,-0.0141,0.0225,-0.0188,0.0731,
12.510165,0.4903,0.4454,0.7525,-0.0009,0.0414,-0.0141,-0.0153,-0.0108,0.0740,
12.512024,0.4999,0.4425,0.7618,-0.0009,0.0414,-0.0141,-0.0153,-0.0108,0.0740,
12.520043,0.5065,0.4393,0.7581,-0.0009,0.0414,-0.0141,-0.0153,-0.0108,0.0740,
12.521289,0.5065,0.4393,0.7581,-0.0938,-0.0028,0.0079,-0.0153,-0.0108,0.0740,
12.522349,0.5065,0.4393,0.7581,-0.1092,0.0237,0.0089,-0.0153,-0.0108,0.0740,
12.543560,0.5018,0.4322,0.7484,-0.1092,0.0237,0.0089,-0.0153,-0.0108,0.0740,
12.554036,0.5008,0.4303,0.7457,-0.1092,0.0237,0.0089,-0.0153,-0.0108,0.0740,
12.570494,0.5008,0.4303,0.7457,-0.1092,0.0237,0.0089,0.0336,-0.0210,0.1322,
12.591009,0.5008,0.4303,0.7457,-0.1900,-0.0704,0.1358,0.0336,-0.0210,0.1322,
12.592955,0.4962,0.4315,0.7259,-0.1900,-0.0704,0.1358,0.0336,-0.0210,0.1322,
12.593523,0.4925,0.4263,0.7330,-0.1900,-0.0704,0.1358,0.0336,-0.0210,0.1322,
12.611120,0.4910,0.4227,0.7520,-0.1900,-0.0704,0.1358,0.0336,-0.0210,0.1322,
12.630701,0.4910,0.4227,0.7520,-0.1900,-0.0704,0.1358,-0.0008,-0.0111,0.2144,
12.653896,0.4744,0.4197,0.7352,-0.1900,-0.0704,0.1358,-0.0008,-0.0111,0.2144,
12.655485,0.4632,0.4109,0.7241,-0.1900,-0.0704,0.1358,-0.0008,-0.0111,0.2144,
12.660600,0.4632,0.4109,0.7241,-0.2430,-0.1073,-0.0460,-0.0008,-0.0111,0.2144,
12.676990,0.4478,0.4036,0.7442,-0.2430,-0.1073,-0.0460,-0.0008,-0.0111,0.2144,
12.711011,0.4478,0.4036,0.7442,-0.2430,-0.1073,-0.0460,-0.0194,-0.0174,0.3619,
12.713085,0.4338,0.3997,0.7601,-0.2430,-0.1073,-0.0460,-0.0194,-0.0174,0.3619,
12.731553,0.4338,0.3997,0.7601,-0.5145,-0.1055,-0.0355,-0.0194,-0.0174,0.3619,
12.733676,0.4267,0.3975,0.7574,-0.5145,-0.1055,-0.0355,-0.0194,-0.0174,0.3619,
12.734467,0.4289,0.4014,0.7799,-0.5145,-0.1055,-0.0355,-0.0194,-0.0174,0.3619,
12.754413,0.4415,0.4034,0.8163,-0.5145,-0.1055,-0.0355,-0.0194,-0.0174,0.3619,
12.771316,0.4415,0.4034,0.8163,-0.5145,-0.1055,-0.0355,0.0188,-0.0044,0.6398,
12.801631,0.4415,0.4034,0.8163,-0.9460,-0.0675,0.1946,0.0188,-0.0044,0.6398,
12.802605,0.4458,0.4163,0.7894,-0.9460,-0.0675,0.1946,0.0188,-0.0044,0.6398,
12.803000,0.4488,0.4378,0.7486,-0.9460,-0.0675,0.1946,0.0188,-0.0044,0.6398,
12.812038,0.4593,0.4435,0.8354,-0.9460,-0.0675,0.1946,0.0188,-0.0044,0.6398,
12.831275,0.4593,0.4435,0.8354,-0.9460,-0.0675,0.1946,0.0756,0.0274,0.9248,
12.854453,0.4454,0.4838,0.9500,-0.9460,-0.0675,0.1946,0.0756,0.0274,0.9248,
12.855968,0.4048,0.5422,1.0153,-0.9460,-0.0675,0.1946,0.0756,0.0274,0.9248,
12.871732,0.3764,0.5798,1.0326,-0.9460,-0.0675,0.1946,0.0756,0.0274,0.9248,
12.873186,0.3764,0.5798,1.0326,-0.9160,0.3339,0.4187,0.0756,0.0274,0.9248,
12.911605,0.3505,0.6358,1.0876,-0.9160,0.3339,0.4187,0.0756,0.0274,0.9248,
12.913258,0.3505,0.6358,1.0876,-0.9160,0.3339,0.4187,0.3696,0.4932,1.3935,
12.941913,0.3505,0.6358,1.0876,-1.2564,1.6101,2.1796,0.3696,0.4932,1.3935,
12.943704,0.3845,0.7324,1.1688,-1.2564,1.6101,2.1796,0.3696,0.4932,1.3935,
12.944354,0.3940,0.8663,1.1906,-1.2564,1.6101,2.1796,0.3696,0.4932,1.3935,
12.944907,0.3940,0.8663,1.1906,-1.3605,1.7693,2.1487,0.3696,0.4932,1.3935,
12.953464,0.4554,1.0108,1.3392,-1.3605,1.7693,2.1487,0.3696,0.4932,1.3935,
12.971820,0.4554,1.0108,1.3392,-1.3605,1.7693,2.1487,1.5647,0.5736,2.1962,
13.011220,0.7269,1.1183,1.4458,-1.3605,1.7693,2.1487,1.5647,0.5736,2.1962,
13.013146,0.9171,1.2064,1.2619,-1.3605,1.7693,2.1487,1.5647,0.5736,2.1962,
13.013766,1.0156,1.3288,1.1275,-1.3605,1.7693,2.1487,1.5647,0.5736,2.1962,
13.014408,1.0156,1.3288,1.1275,-1.9811,3.9093,4.2898,1.5647,0.5736,2.1962,
13.032043,1.0156,1.3288,1.1275,-1.9811,3.9093,4.2898,3.5302,0.5375,2.1688,
13.037670,1.1633,1.4053,1.2665,-1.9811,3.9093,4.2898,3.5302,0.5375,2.1688,
13.053666,1.2371,1.4156,1.3049,-1.9811,3.9093,4.2898,3.5302,0.5375,2.1688,
13.077166,1.3136,1.4249,1.2813,-1.9811,3.9093,4.2898,3.5302,0.5375,2.1688,
13.081885,1.3136,1.4249,1.2813,2.1987,6.8719,6.2018,3.5302,0.5375,2.1688,
13.112420,1.3136,1.4249,1.2813,2.1987,6.8719,6.2018,4.1640,-0.0325,0.7358,
13.114136,1.4937,1.3811,1.5191,2.1987,6.8719,6.2018,4.1640,-0.0325,0.7358,
13.143619,1.5057,1.2680,1.6293,2.1987,6.8719,6.2018,4.1640,-0.0325,0.7358,
13.145216,1.5629,1.1188,1.5748,2.1987,6.8719,6.2018,4.1640,-0.0325,0.7358,
13.153368,1.6245,0.9543,1.4264,2.1987,6.8719,6.2018,4.1640,-0.0325,0.7358,
13.154630,1.6245,0.9543,1.4264,6.2170,7.5274,7.7502,4.1640,-0.0325,0.7358,
13.173684,1.6245,0.9543,1.4264,6.2170,7.5274,7.7502,4.9157,-0.4936,-0.7124,
13.210630,1.6318,0.7737,1.2646,6.2170,7.5274,7.7502,4.9157,-0.4936,-0.7124,
13.212728,1.6556,0.6336,1.0840,6.2170,7.5274,7.7502,4.9157,-0.4936,-0.7124,
13.222852,1.4923,0.5356,1.0097,6.2170,7.5274,7.7502,4.9157,-0.4936,-0.7124,
13.224543,1.4923,0.5356,1.0097,9.1537,3.3161,12.2613,4.9157,-0.4936,-0.7124,
13.232604,1.4923,0.5356,1.0097,9.1537,3.3161,12.2613,4.7335,-1.0955,-2.0255,
13.254205,1.3300,0.4369,1.0847,9.1537,3.3161,12.2613,4.7335,-1.0955,-2.0255,
13.255879,1.2515,0.3569,1.0378,9.1537,3.3161,12.2613,4.7335,-1.0955,-2.0255,
13.277047,1.2701,0.2939,0.8571,9.1537,3.3161,12.2613,4.7335,-1.0955,-2.0255,
13.294282,1.2701,0.2939,0.8571,10.0094,-2.9586,10.5998,4.7335,-1.0955,-2.0255,
13.296010,1.2708,0.2218,0.7283,10.0094,-2.9586,10.5998,4.7335,-1.0955,-2.0255,
13.314796,1.2708,0.2218,0.7283,10.0094,-2.9586,10.5998,4.1729,-2.2297,-2.1448,
13.343843,1.2268,0.1357,0.5978,10.0094,-2.9586,10.5998,4.1729,-2.2297,-2.1448,
13.345229,1.0520,0.0858,0.4783,10.0094,-2.9586,10.5998,4.1729,-2.2297,-2.1448,
13.353532,0.9335,0.0098,0.2940,10.0094,-2.9586,10.5998,4.1729,-2.2297,-2.1448,
13.364448,0.9335,0.0098,0.2940,8.3908,-6.2258,11.3504,4.1729,-2.2297,-2.1448,
13.365859,0.9335,0.0098,0.2940,10.0270,-5.7132,13.6494,4.1729,-2.2297,-2.1448,
13.375763,0.9335,0.0098,0.2940,10.0270,-5.7132,13.6494,3.5697,-2.8747,-2.1498,
13.410780,0.8452,-0.0347,0.1568,10.0270,-5.7132,13.6494,3.5697,-2.8747,-2.1498,
13.412530,0.7514,-0.0523,0.1986,10.0270,-5.7132,13.6494,3.5697,-2.8747,-2.1498,
13.433507,0.6211,-0.0863,0.2461,10.0270,-5.7132,13.6494,3.5697,-2.8747,-2.1498,
13.435875,0.6211,-0.0863,0.2461,9.8177,-7.2980,10.2450,3.5697,-2.8747,-2.1498,
13.437507,0.6211,-0.0863,0.2461,9.8177,-7.2980,10.2450,2.4611,-3.3492,-1.9815,
13.438510,0.4678,-0.1303,0.1666,9.8177,-7.2980,10.2450,2.4611,-3.3492,-1.9815,
13.455005,0.2945,-0.1666,0.0314,9.8177,-7.2980,10.2450,2.4611,-3.3492,-1.9815,
13.477811,0.1816,-0.1787,-0.0350,9.8177,-7.2980,10.2450,2.4611,-3.3492,-1.9815,
13.504838,0.1237,-0.1904,-0.1062,9.8177,-7.2980,10.2450,2.4611,-3.3492,-1.9815,
13.506200,0.1237,-0.1904,-0.1062,7.8934,-7.5122,8.9109,2.4611,-3.3492,-1.9815,
13.513753,0.1237,-0.1904,-0.1062,7.8934,-7.5122,8.9109,2.6028,-3.7440,-1.0519,
13.544540,0.1093,-0.2131,-0.2404,7.8934,-7.5122,8.9109,2.6028,-3.7440,-1.0519,
13.546333,-0.0189,-0.2082,-0.4230,7.8934,-7.5122,8.9109,2.6028,-3.7440,-1.0519,
13.574368,-0.0604,-0.1613,-0.4570,7.8934,-7.5122,8.9109,2.6028,-3.7440,-1.0519,
13.576108,-0.0045,-0.1298,-0.3807,7.8934,-7.5122,8.9109,2.6028,-3.7440,-1.0519,
13.576755,-0.0045,-0.1298,-0.3807,5.0946,-7.1532,6.7473,2.6028,-3.7440,-1.0519,
13.577337,-0.0045,-0.1298,-0.3807,5.0946,-7.1532,6.7473,2.6362,-3.8456,0.3708,
13.610986,0.0970,-0.1237,-0.2572,5.0946,-7.1532,6.7473,2.6362,-3.8456,0.3708,
13.634161,0.0970,-0.1237,-0.2572,5.0946,-7.1532,6.7473,1.6851,-4.1776,1.6114,
13.637013,0.1574,-0.1203,-0.1309,5.0946,-7.1532,6.7473,1.6851,-4.1776,1.6114,
13.644418,0.1464,-0.1427,-0.0600,5.0946,-7.1532,6.7473,1.6851,-4.1776,1.6114,
13.645340,0.1464,-0.1427,-0.0600,4.5053,-6.2892,3.0056,1.6851,-4.1776,1.6114,
13.677226,-0.0052,-0.1579,0.0341,4.5053,-6.2892,3.0056,1.6851,-4.1776,1.6114,
13.678779,-0.1193,-0.2456,0.0982,4.5053,-6.2892,3.0056,1.6851,-4.1776,1.6114,
13.714311,-0.1829,-0.2737,0.1801,4.5053,-6.2892,3.0056,1.6851,-4.1776,1.6114,
13.715947,-0.1829,-0.2737,0.1801,4.5053,-6.2892,3.0056,0.9407,-3.8026,2.0195,
13.716662,-0.2694,-0.2845,0.2695,4.5053,-6.2892,3.0056,0.9407,-3.8026,2.0195,
13.717328,-0.2694,-0.2845,0.2695,6.7959,-5.7711,4.7242,0.9407,-3.8026,2.0195,
13.744246,-0.4297,-0.3454,0.3626,6.7959,-5.7711,4.7242,0.9407,-3.8026,2.0195,
13.774843,-0.5075,-0.3561,0.5010,6.7959,-5.7711,4.7242,0.9407,-3.8026,2.0195,
13.776604,-0.5075,-0.3561,0.5010,6.7959,-5.7711,4.7242,0.2638,-3.5920,3.4223,
13.779783,-0.4501,-0.1926,0.7134,6.7959,-5.7711,4.7242,0.2638,-3.5920,3.4223,
13.794923,-0.2232,-0.0291,0.7755,6.7959,-5.7711,4.7242,0.2638,-3.5920,3.4223,
13.796352,-0.0834,0.1651,0.6870,6.7959,-5.7711,4.7242,0.2638,-3.5920,3.4223,
13.797127,-0.0399,0.1914,0.6812,6.7959,-5.7711,4.7242,0.2638,-3.5920,3.4223,
13.798826,0.0037,0.2208,0.6572,6.7959,-5.7711,4.7242,0.2638,-3.5920,3.4223,
13.801636,0.0594,0.2525,0.6557,6.7959,-5.7711,4.7242,0.2638,-3.5920,3.4223,
13.804341,0.1127,0.2848,0.6494,6.7959,-5.7711,4.7242,0.2638,-3.5920,3.4223,
13.808495,0.1474,0.3195,0.6367,6.7959,-5.7711,4.7242,0.2638,-3.5920,3.4223,
13.809431,0.1669,0.3445,0.6420,6.7959,-5.7711,4.7242,0.2638,-3.5920,3.4223,
13.811786,0.1826,0.3733,0.6415,6.7959,-5.7711,4.7242,0.2638,-3.5920,3.4223,
13.814410,0.1792,0.4100,0.6498,6.7959,-5.7711,4.7242,0.2638,-3.5920,3.4223,
13.816611,0.1723,0.4486,0.6621,6.7959,-5.7711,4.7242,0.2638,-3.5920,3.4223,
13.819565,0.1615,0.4853,0.6758,6.7959,-5.7711,4.7242,0.2638,-3.5920,3.4223,
13.822464,0.1488,0.5175,0.6875,6.7959,-5.7711,4.7242,0.2638,-3.5920,3.4223,
13.824032,0.1381,0.5478,0.6948,6.7959,-5.7711,4.7242,0.2638,-3.5920,3.4223,
13.826726,0.1254,0.5713,0.7114,6.7959,-5.7711,4.7242,0.2638,-3.5920,3.4223,
13.830598,0.1185,0.5913,0.7379,6.7959,-5.7711,4.7242,0.2638,-3.5920,3.4223,
13.832179,0.1038,0.6143,0.7574,6.7959,-5.7711,4.7242,0.2638,-3.5920,3.4223,
13.835519,0.1038,0.6143,0.7574,6.7959,-5.7711,4.7242,-0.3723,-3.2195,5.1516,
13.836272,0.0950,0.6392,0.7892,6.7959,-5.7711,4.7242,-0.3723,-3.2195,5.1516,
13.837015,0.0804,0.6544,0.8190,6.7959,-5.7711,4.7242,-0.3723,-3.2195,5.1516,
13.839172,0.0848,0.6652,0.8571,6.7959,-5.7711,4.7242,-0.3723,-3.2195,5.1516,
13.842203,0.1014,0.6705,0.8982,6.7959,-5.7711,4.7242,-0.3723,-3.2195,5.1516,
13.844322,0.1327,0.6740,0.9353,6.7959,-5.7711,4.7242,-0.3723,-3.2195,5.1516,
13.846753,0.1674,0.6691,0.9623,6.7959,-5.7711,4.7242,-0.3723,-3.2195,5.1516,
13.849023,0.2070,0.6730,0.9891,6.7959,-5.7711,4.7242,-0.3723,-3.2195,5.1516,
13.852454,0.2476,0.6764,1.0053,6.7959,-5.7711,4.7242,-0.3723,-3.2195,5.1516,
13.854489,0.2681,0.6837,1.0024,6.7959,-5.7711,4.7242,-0.3723,-3.2195,5.1516,
13.857025,0.2661,0.6950,0.9876,6.7959,-5.7711,4.7242,-0.3723,-3.2195,5.1516,
13.857796,0.2661,0.6950,0.9876,4.4193,-7.4777,6.3244,-0.3723,-3.2195,5.1516,
13.858594,0.2661,0.6950,0.9876,3.9371,-8.6676,4.9956,-0.3723,-3.2195,5.1516,
13.859265,0.2661,0.6950,0.9876,2.2072,-10.1046,3.8180,-0.3723,-3.2195,5.1516,
13.862257,0.2403,0.7204,0.9618,2.2072,-10.1046,3.8180,-0.3723,-3.2195,5.1516,
13.863239,0.1904,0.7497,0.9314,2.2072,-10.1046,3.8180,-0.3723,-3.2195,5.1516,
13.876719,0.1337,0.7747,0.8982,2.2072,-10.1046,3.8180,-0.3723,-3.2195,5.1516,
13.878326,0.0677,0.8025,0.8547,2.2072,-10.1046,3.8180,-0.3723,-3.2195,5.1516,
13.879364,-0.0003,0.8260,0.8136,2.2072,-10.1046,3.8180,-0.3723,-3.2195,5.1516,
13.880109,-0.0663,0.8499,0.7804,2.2072,-10.1046,3.8180,-0.3723,-3.2195,5.1516,
13.880831,-0.1220,0.8602,0.7589,2.2072,-10.1046,3.8180,-0.3723,-3.2195,5.1516,
13.881444,-0.1695,0.8681,0.7603,2.2072,-10.1046,3.8180,-0.3723,-3.2195,5.1516,
13.883404,-0.2198,0.8783,0.7652,2.2072,-10.1046,3.8180,-0.3723,-3.2195,5.1516,
13.884000,-0.2682,0.8910,0.7829,2.2072,-10.1046,3.8180,-0.3723,-3.2195,5.1516,
13.884630,-0.2980,0.8944,0.8053,2.2072,-10.1046,3.8180,-0.3723,-3.2195,5.1516,
13.887877,-0.3161,0.8925,0.8518,2.2072,-10.1046,3.8180,-0.3723,-3.2195,5.1516,
13.890198,-0.3136,0.8935,0.9129,2.2072,-10.1046,3.8180,-0.3723,-3.2195,5.1516,
13.893441,-0.2936,0.8852,0.9876,2.2072,-10.1046,3.8180,-0.3723,-3.2195,5.1516,
13.895475,-0.2516,0.8817,1.0737,2.2072,-10.1046,3.8180,-0.3723,-3.2195,5.1516,
13.896812,-0.1885,0.8749,1.1539,2.2072,-10.1046,3.8180,-0.3723,-3.2195,5.1516,
13.899271,-0.1196,0.8759,1.2219,2.2072,-10.1046,3.8180,-0.3723,-3.2195,5.1516,
13.903935,-0.0570,0.8773,1.2903,2.2072,-10.1046,3.8180,-0.3723,-3.2195,5.1516,
13.904588,0.0046,0.8803,1.3455,2.2072,-10.1046,3.8180,-0.3723,-3.2195,5.1516,
13.907560,0.0599,0.8817,1.3915,2.2072,-10.1046,3.8180,-0.3723,-3.2195,5.1516,
13.910291,0.1137,0.8915,1.4286,2.2072,-10.1046,3.8180,-0.3723,-3.2195,5.1516,
13.912654,0.1547,0.9086,1.4526,2.2072,-10.1046,3.8180,-0.3723,-3.2195,5.1516,
13.915483,0.1865,0.9287,1.4497,2.2072,-10.1046,3.8180,-0.3723,-3.2195,5.1516,
13.916079,0.1865,0.9287,1.4497,2.2072,-10.1046,3.8180,-1.9899,-1.5884,4.7667,
13.918410,0.2241,0.9560,1.4419,2.2072,-10.1046,3.8180,-1.9899,-1.5884,4.7667,
13.923037,0.2407,0.9834,1.4149,2.2072,-10.1046,3.8180,-1.9899,-1.5884,4.7667,
13.924949,0.2471,1.0108,1.3695,2.2072,-10.1046,3.8180,-1.9899,-1.5884,4.7667,
13.931721,0.2471,1.0108,1.3695,2.7900,-3.8105,8.3609,-1.9899,-1.5884,4.7667,
13.976639,0.2471,1.0108,1.3695,2.7900,-3.8105,8.3609,-2.4518,-0.7903,4.8585,
13.989920,0.4627,1.1716,1.3341,2.7900,-3.8105,8.3609,-2.4518,-0.7903,4.8585,
14.035447,0.4627,1.1716,1.3341,2.7900,-3.8105,8.3609,-2.7253,0.7612,4.6623,
14.036816,0.5529,1.1599,1.5545,2.7900,-3.8105,8.3609,-2.7253,0.7612,4.6623,
14.037686,0.6484,1.1125,1.2957,2.7900,-3.8105,8.3609,-2.7253,0.7612,4.6623,
14.038625,0.6484,1.1125,1.2957,-1.0649,-0.0372,9.9352,-2.7253,0.7612,4.6623,
14.039381,0.6484,1.1125,1.2957,-3.2906,0.7755,8.2375,-2.7253,0.7612,4.6623,
14.054842,0.7494,1.0225,1.1011,-3.2906,0.7755,8.2375,-2.7253,0.7612,4.6623,
14.106046,0.8301,0.9319,1.3154,-3.2906,0.7755,8.2375,-2.7253,0.7612,4.6623,
14.107627,0.9005,0.8473,1.4441,-3.2906,0.7755,8.2375,-2.7253,0.7612,4.6623,
14.108239,1.1254,0.7710,1.3353,-3.2906,0.7755,8.2375,-2.7253,0.7612,4.6623,
14.108748,1.1254,0.7710,1.3353,0.8067,4.6672,9.5021,-2.7253,0.7612,4.6623,
14.115638,1.1254,0.7710,1.3353,0.8067,4.6672,9.5021,-2.0213,1.2776,4.6645,
14.154221,1.4690,0.7920,1.3463,0.8067,4.6672,9.5021,-2.0213,1.2776,4.6645,
14.156213,1.6199,0.8492,1.4787,0.8067,4.6672,9.5021,-2.0213,1.2776,4.6645,
14.177140,1.4911,0.7883,1.4264,0.8067,4.6672,9.5021,-2.0213,1.2776,4.6645,
14.178991,1.4911,0.7883,1.4264,0.8067,4.6672,9.5021,-0.7317,1.8190,4.8860,
14.180097,1.4911,0.7883,1.4264,2.8865,3.9894,8.2719,-0.7317,1.8190,4.8860,
14.190529,1.3436,0.6815,1.4406,2.8865,3.9894,8.2719,-0.7317,1.8190,4.8860,
14.236536,1.3436,0.6815,1.4406,2.8865,3.9894,8.2719,0.8570,2.6394,4.3272,
14.238284,1.2664,0.5483,1.5432,2.8865,3.9894,8.2719,0.8570,2.6394,4.3272,
14.238998,1.4236,0.3684,1.4932,2.8865,3.9894,8.2719,0.8570,2.6394,4.3272,
14.246270,1.4759,0.2384,1.1092,2.8865,3.9894,8.2719,0.8570,2.6394,4.3272,
14.247621,1.4759,0.2384,1.1092,8.2645,4.9048,7.9730,0.8570,2.6394,4.3272,
14.267493,1.3165,0.1352,0.9419,8.2645,4.9048,7.9730,0.8570,2.6394,4.3272,
14.296651,1.3165,0.1352,0.9419,8.2645,4.9048,7.9730,2.7109,2.5740,4.0557,
14.298750,1.3324,0.0316,1.2084,8.2645,4.9048,7.9730,2.7109,2.5740,4.0557,
14.316632,1.3324,0.0316,1.2084,7.2031,2.1166,6.9415,2.7109,2.5740,4.0557,
14.318041,1.3933,-0.0968,1.0718,7.2031,2.1166,6.9415,2.7109,2.5740,4.0557,
14.354316,1.3319,-0.1329,0.6699,7.2031,2.1166,6.9415,2.7109,2.5740,4.0557,
14.355869,1.3835,-0.1143,0.5450,7.2031,2.1166,6.9415,2.7109,2.5740,4.0557,
14.376722,1.4221,-0.0613,0.4966,7.2031,2.1166,6.9415,2.7109,2.5740,4.0557,
14.378148,1.4221,-0.0613,0.4966,7.2031,2.1166,6.9415,3.7315,1.9074,3.7247,
14.387751,1.3657,-0.0036,0.3590,7.2031,2.1166,6.9415,3.7315,1.9074,3.7247,
14.389408,1.3657,-0.0036,0.3590,7.4070,-1.8449,2.7222,3.7315,1.9074,3.7247,
14.390845,1.3657,-0.0036,0.3590,7.5993,-2.2844,2.5694,3.7315,1.9074,3.7247,
14.437888,1.2747,0.0519,0.2820,7.5993,-2.2844,2.5694,3.7315,1.9074,3.7247,
14.439862,1.1953,0.0778,0.3001,7.5993,-2.2844,2.5694,3.7315,1.9074,3.7247,
14.440561,1.1953,0.0778,0.3001,7.5993,-2.2844,2.5694,2.6416,0.9853,2.0201,
14.454095,1.0635,0.0993,0.3406,7.5993,-2.2844,2.5694,2.6416,0.9853,2.0201,
14.456504,1.0635,0.0993,0.3406,7.9184,-3.4297,-2.5972,2.6416,0.9853,2.0201,
14.497085,1.0635,0.0993,0.3406,7.9184,-3.4297,-2.5972,0.8205,0.2887,0.2828,
14.498609,0.9479,0.1113,0.4211,7.9184,-3.4297,-2.5972,0.8205,0.2887,0.2828,
14.499145,0.8650,0.1274,0.5051,7.9184,-3.4297,-2.5972,0.8205,0.2887,0.2828,
14.524514,0.7702,0.1459,0.5655,7.9184,-3.4297,-2.5972,0.8205,0.2887,0.2828,
14.527088,0.7044,0.1641,0.6812,7.9184,-3.4297,-2.5972,0.8205,0.2887,0.2828,
14.529017,0.7044,0.1641,0.6812,5.6320,-2.1683,-4.1133,0.8205,0.2887,0.2828,
14.554014,0.6964,0.2009,0.7464,5.6320,-2.1683,-4.1133,0.8205,0.2887,0.2828,
14.577555,0.6964,0.2009,0.7464,5.6320,-2.1683,-4.1133,0.0462,-0.1543,-0.3314,
14.579275,0.6661,0.2359,0.6486,5.6320,-2.1683,-4.1133,0.0462,-0.1543,-0.3314,
14.589598,0.6292,0.2506,0.6498,5.6320,-2.1683,-4.1133,0.0462,-0.1543,-0.3314,
14.597675,0.6292,0.2506,0.6498,2.1787,-1.6751,-1.6414,0.0462,-0.1543,-0.3314,
14.638054,0.6292,0.2506,0.6498,2.1787,-1.6751,-1.6414,-0.1286,-0.3084,-0.4122,
14.639955,0.5859,0.2608,0.7254,2.1787,-1.6751,-1.6414,-0.1286,-0.3084,-0.4122,
14.641009,0.5510,0.2692,0.7936,2.1787,-1.6751,-1.6414,-0.1286,-0.3084,-0.4122,
14.653751,0.5026,0.2738,0.8051,2.1787,-1.6751,-1.6414,-0.1286,-0.3084,-0.4122,
14.667858,0.5011,0.2780,0.8024,2.1787,-1.6751,-1.6414,-0.1286,-0.3084,-0.4122,
14.669257,0.5011,0.2780,0.8024,0.6849,-0.8648,-0.3651,-0.1286,-0.3084,-0.4122,
14.698030,0.5011,0.2780,0.8024,0.6849,-0.8648,-0.3651,-0.0330,-0.3587,-0.2077,
14.699679,0.5297,0.3031,0.7897,0.6849,-0.8648,-0.3651,-0.0330,-0.3587,-0.2077,
14.724130,0.5260,0.3149,0.7567,0.6849,-0.8648,-0.3651,-0.0330,-0.3587,-0.2077,
14.738278,0.5236,0.3225,0.7882,0.6849,-0.8648,-0.3651,-0.0330,-0.3587,-0.2077,
14.739789,0.5236,0.3225,0.7882,-0.6479,-0.5229,0.7750,-0.0330,-0.3587,-0.2077,
14.755099,0.5397,0.3352,0.7909,-0.6479,-0.5229,0.7750,-0.0330,-0.3587,-0.2077,
14.778327,0.5605,0.3510,0.7432,-0.6479,-0.5229,0.7750,-0.0330,-0.3587,-0.2077,
14.779877,0.5605,0.3510,0.7432,-0.6479,-0.5229,0.7750,-0.0031,-0.2322,-0.0663,
14.790313,0.5820,0.3618,0.7212,-0.6479,-0.5229,0.7750,-0.0031,-0.2322,-0.0663,
14.808303,0.5788,0.3601,0.7650,-0.6479,-0.5229,0.7750,-0.0031,-0.2322,-0.0663,
14.809655,0.5788,0.3601,0.7650,-0.7319,-0.1287,0.7635,-0.0031,-0.2322,-0.0663,
14.810267,0.5788,0.3601,0.7650,-0.7755,-0.1444,0.8074,-0.0031,-0.2322,-0.0663,
14.838708,0.5365,0.3628,0.7995,-0.7755,-0.1444,0.8074,-0.0031,-0.2322,-0.0663,
14.840351,0.5365,0.3628,0.7995,-0.7755,-0.1444,0.8074,-0.1021,-0.0756,-0.1194,
14.853472,0.5236,0.3684,0.8073,-0.7755,-0.1444,0.8074,-0.1021,-0.0756,-0.1194,
14.878789,0.5593,0.3740,0.7853,-0.7755,-0.1444,0.8074,-0.1021,-0.0756,-0.1194,
14.880546,0.5593,0.3740,0.7853,-0.3373,0.2357,0.4528,-0.1021,-0.0756,-0.1194,
14.898690,0.5593,0.3740,0.7853,-0.3373,0.2357,0.4528,0.0234,-0.0360,-0.0407,
14.899902,0.5839,0.3797,0.7535,-0.3373,0.2357,0.4528,0.0234,-0.0360,-0.0407,
14.923302,0.5927,0.3824,0.7308,-0.3373,0.2357,0.4528,0.0234,-0.0360,-0.0407,
14.948762,0.5927,0.3824,0.7308,-0.5630,0.3432,0.8793,0.0234,-0.0360,-0.0407,
14.950707,0.5908,0.3814,0.7286,-0.5630,0.3432,0.8793,0.0234,-0.0360,-0.0407,
14.951348,0.5910,0.3807,0.7381,-0.5630,0.3432,0.8793,0.0234,-0.0360,-0.0407,
14.978834,0.5910,0.3807,0.7381,-0.5630,0.3432,0.8793,-0.0064,0.0402,-0.0788,
14.980326,0.5949,0.3763,0.7288,-0.5630,0.3432,0.8793,-0.0064,0.0402,-0.0788,
14.989253,0.6094,0.3730,0.7435,-0.5630,0.3432,0.8793,-0.0064,0.0402,-0.0788,
15.019166,0.5964,0.3804,0.7403,-0.5630,0.3432,0.8793,-0.0064,0.0402,-0.0788,
15.020890,0.5964,0.3804,0.7403,-0.0884,0.4221,0.3042,-0.0064,0.0402,-0.0788,
15.038358,0.5974,0.3792,0.7276,-0.0884,0.4221,0.3042,-0.0064,0.0402,-0.0788,
15.040221,0.5974,0.3792,0.7276,-0.0884,0.4221,0.3042,0.0047,0.0522,-0.1053,
15.053921,0.5932,0.3789,0.7129,-0.0884,0.4221,0.3042,0.0047,0.0522,-0.1053,
15.089288,0.5932,0.3789,0.7129,0.0485,0.3330,0.2945,0.0047,0.0522,-0.1053,
15.091281,0.5956,0.3780,0.7080,0.0485,0.3330,0.2945,0.0047,0.0522,-0.1053,
15.091978,0.5925,0.3819,0.7279,0.0485,0.3330,0.2945,0.0047,0.0522,-0.1053,
15.098842,0.5925,0.3819,0.7279,0.0485,0.3330,0.2945,0.0081,0.0322,-0.0949,
15.122914,0.5934,0.3814,0.7379,0.0485,0.3330,0.2945,0.0081,0.0322,-0.0949,
15.154493,0.5976,0.3821,0.7212,0.0485,0.3330,0.2945,0.0081,0.0322,-0.0949,
15.155978,0.5952,0.3826,0.7303,0.0485,0.3330,0.2945,0.0081,0.0322,-0.0949,
15.159457,0.5952,0.3826,0.7303,0.0229,0.3144,0.0969,0.0081,0.0322,-0.0949,
15.179304,0.5952,0.3826,0.7303,0.0229,0.3144,0.0969,-0.0174,0.0393,-0.1040,
15.180866,0.5849,0.3868,0.7491,0.0229,0.3144,0.0969,-0.0174,0.0393,-0.1040,
15.189352,0.5754,0.3892,0.7559,0.0229,0.3144,0.0969,-0.0174,0.0393,-0.1040,
15.229492,0.5754,0.3892,0.7559,0.0598,0.3088,0.2182,-0.0174,0.0393,-0.1040,
15.231201,0.5712,0.3899,0.7562,0.0598,0.3088,0.2182,-0.0174,0.0393,-0.1040,
15.232007,0.5688,0.3919,0.7569,0.0598,0.3088,0.2182,-0.0174,0.0393,-0.1040,
15.232607,0.5688,0.3919,0.7569,0.1044,0.2696,0.1939,-0.0174,0.0393,-0.1040,
15.241229,0.5688,0.3919,0.7569,0.1044,0.2696,0.1939,-0.0225,0.0386,-0.1345,
15.253783,0.5746,0.3977,0.7513,0.1044,0.2696,0.1939,-0.0225,0.0386,-0.1345,
15.301082,0.5649,0.3982,0.7459,0.1044,0.2696,0.1939,-0.0225,0.0386,-0.1345,
15.302881,0.5649,0.4021,0.7572,0.1044,0.2696,0.1939,-0.0225,0.0386,-0.1345,
15.303378,0.5649,0.4021,0.7572,-0.0479,0.2621,0.3713,-0.0225,0.0386,-0.1345,
15.303925,0.5649,0.4021,0.7572,-0.0479,0.2621,0.3713,0.0194,0.0593,-0.1378,
15.322578,0.5744,0.4031,0.7647,-0.0479,0.2621,0.3713,0.0194,0.0593,-0.1378,
15.353806,0.5727,0.4048,0.7464,-0.0479,0.2621,0.3713,0.0194,0.0593,-0.1378,
15.355304,0.5702,0.3999,0.7274,-0.0479,0.2621,0.3713,0.0194,0.0593,-0.1378,
15.370040,0.5659,0.3995,0.7369,-0.0479,0.2621,0.3713,0.0194,0.0593,-0.1378,
15.371222,0.5659,0.3995,0.7369,-0.0259,0.2550,0.2957,0.0194,0.0593,-0.1378,
15.380999,0.5659,0.3995,0.7369,-0.0259,0.2550,0.2957,0.0586,0.0792,-0.1501,
15.390223,0.5702,0.3960,0.7396,-0.0259,0.2550,0.2957,0.0586,0.0792,-0.1501,
15.440722,0.5702,0.3960,0.7396,-0.0259,0.2550,0.2957,0.0746,0.0530,-0.0816,
15.442729,0.5605,0.4009,0.7249,-0.0259,0.2550,0.2957,0.0746,0.0530,-0.0816,
15.443403,0.5712,0.4009,0.7286,-0.0259,0.2550,0.2957,0.0746,0.0530,-0.0816,
15.443877,0.5712,0.4009,0.7286,0.0439,0.1797,0.1428,0.0746,0.0530,-0.0816,
15.453547,0.5705,0.4080,0.7153,0.0439,0.1797,0.1428,0.0746,0.0530,-0.0816,
15.501577,0.5705,0.4080,0.7153,0.0439,0.1797,0.1428,0.0530,0.0178,-0.0495,
15.503346,0.5556,0.4021,0.7026,0.0439,0.1797,0.1428,0.0530,0.0178,-0.0495,
15.503957,0.5505,0.3951,0.7259,0.0439,0.1797,0.1428,0.0530,0.0178,-0.0495,
15.510888,0.5536,0.3868,0.7236,0.0439,0.1797,0.1428,0.0530,0.0178,-0.0495,
15.512106,0.5536,0.3868,0.7236,0.0447,0.1041,0.0332,0.0530,0.0178,-0.0495,
15.554574,0.5475,0.3863,0.6975,0.0447,0.1041,0.0332,0.0530,0.0178,-0.0495,
15.556736,0.5619,0.3855,0.7117,0.0447,0.1041,0.0332,0.0530,0.0178,-0.0495,
15.580832,0.5619,0.3855,0.7117,0.0447,0.1041,0.0332,0.0345,-0.0531,0.0136,
15.582440,0.5561,0.3885,0.7266,0.0447,0.1041,0.0332,0.0345,-0.0531,0.0136,
15.583104,0.5561,0.3885,0.7266,-0.0676,0.0357,-0.0759,0.0345,-0.0531,0.0136,
15.641533,0.5571,0.3951,0.7415,-0.0676,0.0357,-0.0759,0.0345,-0.0531,0.0136,
15.643263,0.5698,0.4024,0.7362,-0.0676,0.0357,-0.0759,0.0345,-0.0531,0.0136,
15.644141,0.5597,0.4073,0.7474,-0.0676,0.0357,-0.0759,0.0345,-0.0531,0.0136,
15.644714,0.5597,0.4073,0.7474,-0.0676,0.0357,-0.0759,-0.0189,-0.0579,0.0236,
15.651717,0.5597,0.4073,0.7474,-0.0972,-0.0473,-0.0532,-0.0189,-0.0579,0.0236,
15.652398,0.5490,0.4085,0.7764,-0.0972,-0.0473,-0.0532,-0.0189,-0.0579,0.0236,
15.653035,0.5490,0.4085,0.7764,-0.1114,-0.0239,-0.0375,-0.0189,-0.0579,0.0236,
15.701468,0.5490,0.4085,0.7764,-0.1114,-0.0239,-0.0375,-0.0166,-0.0473,0.0274,
15.703355,0.5602,0.4143,0.7723,-0.1114,-0.0239,-0.0375,-0.0166,-0.0473,0.0274,
15.704128,0.5778,0.4187,0.7406,-0.1114,-0.0239,-0.0375,-0.0166,-0.0473,0.0274,
15.721904,0.5778,0.4187,0.7406,-0.0730,0.1414,0.3019,-0.0166,-0.0473,0.0274,
15.723333,0.5771,0.4219,0.7274,-0.0730,0.1414,0.3019,-0.0166,-0.0473,0.0274,
15.754267,0.5651,0.4207,0.7246,-0.0730,0.1414,0.3019,-0.0166,-0.0473,0.0274,
15.755840,0.5605,0.4136,0.7227,-0.0730,0.1414,0.3019,-0.0166,-0.0473,0.0274,
15.777441,0.5502,0.4129,0.7369,-0.0730,0.1414,0.3019,-0.0166,-0.0473,0.0274,
15.781571,0.5502,0.4129,0.7369,-0.0730,0.1414,0.3019,-0.0246,-0.0292,-0.0394,
15.783554,0.5502,0.4031,0.7359,-0.0730,0.1414,0.3019,-0.0246,-0.0292,-0.0394,
15.786654,0.5566,0.4080,0.7476,-0.0730,0.1414,0.3019,-0.0246,-0.0292,-0.0394,
15.787664,0.5615,0.4100,0.7462,-0.0730,0.1414,0.3019,-0.0246,-0.0292,-0.0394,
15.788461,0.5624,0.4036,0.7511,-0.0730,0.1414,0.3019,-0.0246,-0.0292,-0.0394,
15.791070,0.5615,0.4056,0.7540,-0.0730,0.1414,0.3019,-0.0246,-0.0292,-0.0394,
15.793768,0.5624,0.4065,0.7520,-0.0730,0.1414,0.3019,-0.0246,-0.0292,-0.0394,
15.796713,0.5639,0.4095,0.7496,-0.0730,0.1414,0.3019,-0.0246,-0.0292,-0.0394,
15.798703,0.5619,0.4119,0.7491,-0.0730,0.1414,0.3019,-0.0246,-0.0292,-0.0394,
15.802030,0.5634,0.4085,0.7388,-0.0730,0.1414,0.3019,-0.0246,-0.0292,-0.0394,
15.804014,0.5619,0.4090,0.7359,-0.0730,0.1414,0.3019,-0.0246,-0.0292,-0.0394,
15.808155,0.5615,0.4119,0.7354,-0.0730,0.1414,0.3019,-0.0246,-0.0292,-0.0394,
15.810488,0.5624,0.4100,0.7310,-0.0730,0.1414,0.3019,-0.0246,-0.0292,-0.0394,
15.811569,0.5688,0.4095,0.7340,-0.0730,0.1414,0.3019,-0.0246,-0.0292,-0.0394,
15.814343,0.5663,0.4104,0.7325,-0.0730,0.1414,0.3019,-0.0246,-0.0292,-0.0394,
15.816341,0.5683,0.4080,0.7301,-0.0730,0.1414,0.3019,-0.0246,-0.0292,-0.0394,
15.819489,0.5644,0.4090,0.7359,-0.0730,0.1414,0.3019,-0.0246,-0.0292,-0.0394,
15.821582,0.5644,0.4095,0.7325,-0.0730,0.1414,0.3019,-0.0246,-0.0292,-0.0394,
15.825285,0.5663,0.4124,0.7340,-0.0730,0.1414,0.3019,-0.0246,-0.0292,-0.0394,
15.826247,0.5654,0.4085,0.7359,-0.0730,0.1414,0.3019,-0.0246,-0.0292,-0.0394,
15.830320,0.5634,0.4104,0.7374,-0.0730,0.1414,0.3019,-0.0246,-0.0292,-0.0394,
15.831210,0.5663,0.4051,0.7393,-0.0730,0.1414,0.3019,-0.0246,-0.0292,-0.0394,
15.833616,0.5742,0.4065,0.7442,-0.0730,0.1414,0.3019,-0.0246,-0.0292,-0.0394,
15.837002,0.5732,0.4075,0.7457,-0.0730,0.1414,0.3019,-0.0246,-0.0292,-0.0394,
15.839774,0.5722,0.4065,0.7476,-0.0730,0.1414,0.3019,-0.0246,-0.0292,-0.0394,
15.845899,0.5717,0.4060,0.7491,-0.0730,0.1414,0.3019,-0.0246,-0.0292,-0.0394,
15.846940,0.5717,0.4060,0.7491,-0.0730,0.1414,0.3019,-0.0414,-0.0356,-0.0266,
15.847639,0.5712,0.4031,0.7525,-0.0730,0.1414,0.3019,-0.0414,-0.0356,-0.0266,
15.848058,0.5712,0.4031,0.7525,0.0253,0.2461,0.1974,-0.0414,-0.0356,-0.0266,
15.848669,0.5712,0.4031,0.7525,0.0152,0.2267,0.1769,-0.0414,-0.0356,-0.0266,
